[
	{
		"rt": 903.2199999783188,
		"stimulus": "Welcome to the experiment. (Some informed consent)",
		"response": 0,
		"screen": "session_info",
		"participant_id": "20210227_001926_bbnwh",
		"experiment_version": "0.0.1",
		"datetime": "27/02/2021 00:19:26",
		"date": "20210227",
		"time": "001926",
		"date_timezone": 8,
		"window_width": 1536,
		"window_height": 722,
		"window_resolution": "1536x722",
		"screen_width": 1536,
		"screen_height": 864,
		"screen_resolution": "1536x864",
		"screen_colordepth": 24,
		"screen_pixeldepth": 24,
		"screen_touchscreen": false,
		"browser_name": "Netscape",
		"browser_codename": "Mozilla",
		"browser_engine": "Gecko",
		"browser_version": "5.0 (Windows NT 10.0; Win64; x64) AppleWebKit/537.36 (KHTML, like Gecko) Chrome/88.0.4324.190 Safari/537.36",
		"browser": "Mozilla/5.0 (Windows NT 10.0; Win64; x64) AppleWebKit/537.36 (KHTML, like Gecko) Chrome/88.0.4324.190 Safari/537.36",
		"system_platform": "Win32",
		"system_language": "en-US",
		"trial_type": "html-button-response",
		"trial_index": 0,
		"time_elapsed": 951,
		"internal_node_id": "0.0-0.0"
	},
	{
		"rt": 10482.67999998643,
		"response": {
			"Age": "20/12/2020",
			"Initials": "JK"
		},
		"screen": "participant_info_general",
		"trial_type": "survey-text",
		"trial_index": 1,
		"time_elapsed": 11440,
		"internal_node_id": "0.0-1.0"
	},
	{
		"rt": 3501.554999995278,
		"response": {
			"AlreadyPlayed": "No"
		},
		"question_order": [
			0
		],
		"screen": "participant_info_repetition",
		"trial_type": "survey-multi-choice",
		"trial_index": 2,
		"time_elapsed": 14943,
		"internal_node_id": "0.0-2.0"
	},
	{
		"rt": 1342.3649999895133,
		"stimulus": "<p>In this experiment, two red circles will appear on the screen.</p><p>Your task is to judge which circle is bigger in size. </p><p>If the <strong>left circle</strong> is bigger, press the <strong>left arrow key</strong> on the keyboard as fast as you can.</p><p>If the <strong>right circle</strong> is bigger, press the <strong>right arrow key</strong> as fast as you can.</p><hr><div style='float: center'><img src='demo_stimuli/Delboeuf_Demo.png' height='300'></img><p class='small'>For example, <strong>press the left arrow key</strong> here.</p></div>",
		"response": 0,
		"trial_type": "html-button-response",
		"trial_index": 3,
		"time_elapsed": 16288,
		"internal_node_id": "0.0-3.0"
	},
	{
		"rt": null,
		"stimulus": "<div style=\"font-size:60px;\">+</div>",
		"response": null,
		"screen": "fixation",
		"trial_type": "html-keyboard-response",
		"trial_index": 4,
		"time_elapsed": 18895,
		"internal_node_id": "0.0-4.0-0.0"
	},
	{
		"rt": 901.3900000136346,
		"stimulus": "stimuli/delboeuf_str0_diff-1.png",
		"response": "arrowright",
		"screen": "test",
		"block": "delboeuf",
		"correct_response": "arrowright",
		"trial_type": "image-keyboardmouse-response",
		"trial_index": 5,
		"time_elapsed": 19802,
		"internal_node_id": "0.0-4.0-1.0",
		"prestimulus_duration": 2607,
		"correct": true,
		"block_number": 1,
		"trial_number": 1
	},
	{
		"rt": null,
		"stimulus": "<div style=\"font-size:60px;\">+</div>",
		"response": null,
		"screen": "fixation",
		"trial_type": "html-keyboard-response",
		"trial_index": 6,
		"time_elapsed": 20279,
		"internal_node_id": "0.0-4.0-0.1"
	},
	{
		"rt": 1357.8299999935552,
		"stimulus": "stimuli/delboeuf_str1_diff1.png",
		"response": "arrowleft",
		"screen": "test",
		"block": "delboeuf",
		"correct_response": "arrowleft",
		"trial_type": "image-keyboardmouse-response",
		"trial_index": 7,
		"time_elapsed": 21639,
		"internal_node_id": "0.0-4.0-1.1",
		"prestimulus_duration": 477,
		"correct": true,
		"block_number": 1,
		"trial_number": 2
	},
	{
		"rt": null,
		"stimulus": "<div style=\"font-size:60px;\">+</div>",
		"response": null,
		"screen": "fixation",
		"trial_type": "html-keyboard-response",
		"trial_index": 8,
		"time_elapsed": 22076,
		"internal_node_id": "0.0-4.0-0.2"
	},
	{
		"rt": 1606.4799999876413,
		"stimulus": "stimuli/delboeuf_str1_diff-1.png",
		"response": "arrowright",
		"screen": "test",
		"block": "delboeuf",
		"correct_response": "arrowright",
		"trial_type": "image-keyboardmouse-response",
		"trial_index": 9,
		"time_elapsed": 23684,
		"internal_node_id": "0.0-4.0-1.2",
		"prestimulus_duration": 437,
		"correct": true,
		"block_number": 1,
		"trial_number": 3
	},
	{
		"rt": null,
		"stimulus": "<div style=\"font-size:60px;\">+</div>",
		"response": null,
		"screen": "fixation",
		"trial_type": "html-keyboard-response",
		"trial_index": 10,
		"time_elapsed": 24363,
		"internal_node_id": "0.0-4.0-0.3"
	},
	{
		"rt": 723.2050000166055,
		"stimulus": "stimuli/delboeuf_str-1_diff1.png",
		"response": "arrowleft",
		"screen": "test",
		"block": "delboeuf",
		"correct_response": "arrowleft",
		"trial_type": "image-keyboardmouse-response",
		"trial_index": 11,
		"time_elapsed": 25089,
		"internal_node_id": "0.0-4.0-1.3",
		"prestimulus_duration": 679,
		"correct": true,
		"block_number": 1,
		"trial_number": 4
	},
	{
		"rt": null,
		"stimulus": "<div style=\"font-size:60px;\">+</div>",
		"response": null,
		"screen": "fixation",
		"trial_type": "html-keyboard-response",
		"trial_index": 12,
		"time_elapsed": 25514,
		"internal_node_id": "0.0-4.0-0.4"
	},
	{
		"rt": 622.0099999918602,
		"stimulus": "stimuli/delboeuf_str0_diff1.png",
		"response": "arrowleft",
		"screen": "test",
		"block": "delboeuf",
		"correct_response": "arrowleft",
		"trial_type": "image-keyboardmouse-response",
		"trial_index": 13,
		"time_elapsed": 26138,
		"internal_node_id": "0.0-4.0-1.4",
		"prestimulus_duration": 425,
		"correct": true,
		"block_number": 1,
		"trial_number": 5
	},
	{
		"rt": null,
		"stimulus": "<div style=\"font-size:60px;\">+</div>",
		"response": null,
		"screen": "fixation",
		"trial_type": "html-keyboard-response",
		"trial_index": 14,
		"time_elapsed": 26615,
		"internal_node_id": "0.0-4.0-0.5"
	},
	{
		"rt": 754.3000000005122,
		"stimulus": "stimuli/delboeuf_str-1_diff-1.png",
		"response": "arrowright",
		"screen": "test",
		"block": "delboeuf",
		"correct_response": "arrowright",
		"trial_type": "image-keyboardmouse-response",
		"trial_index": 15,
		"time_elapsed": 27371,
		"internal_node_id": "0.0-4.0-1.5",
		"prestimulus_duration": 477,
		"correct": true,
		"block_number": 1,
		"trial_number": 6
	},
	{
		"rt": 4103.579999995418,
		"stimulus": "<p>Here are your results:</p><hr><p style='color:rgb(76,175,80);'>You responded correctly on <b>100.00%</b> of the trials.</p><p style='color:rgb(233,30,99);'>Your average response time was <b>994.20</b> ms.</p><p style='color:rgb(233,30,99);'>You performed better than <b>0.00</b>% of the population.</p><hr><p>Can you do better in the next illusion?</p>",
		"response": 0,
		"screen": "block_results",
		"trial_type": "html-button-response",
		"trial_index": 16,
		"time_elapsed": 31479,
		"internal_node_id": "0.0-5.0",
		"block": "delboeuf",
		"block_number": 1,
		"rt_mean": 994.2025000006348,
		"rt_mean_correct": 994.2025000006348,
		"accuracy": 1,
		"inverse_efficiency_score": 994.2025000006348
	},
	{
		"rt": 977.9850000049919,
		"stimulus": "<p>In this experiment, two red circles will appear on the screen.</p><p>Your task is to judge which circle is bigger in size. </p><p>If the <strong>left circle</strong> is bigger, press the <strong>left arrow key</strong> on the keyboard as fast as you can.</p><p>If the <strong>right circle</strong> is bigger, press the <strong>right arrow key</strong> as fast as you can.</p><hr><div style='float: center'><img src='demo_stimuli/Ebbinghaus_Demo.png' height='300'></img><p class='small'>For example, <strong>press the left arrow key</strong> here.</p></div>",
		"response": 0,
		"trial_type": "html-button-response",
		"trial_index": 17,
		"time_elapsed": 32459,
		"internal_node_id": "0.0-6.0"
	},
	{
		"rt": null,
		"stimulus": "<div style=\"font-size:60px;\">+</div>",
		"response": null,
		"screen": "fixation",
		"trial_type": "html-keyboard-response",
		"trial_index": 18,
		"time_elapsed": 34751,
		"internal_node_id": "0.0-7.0-0.0"
	},
	{
		"rt": 559.7999999881722,
		"stimulus": "stimuli/ebbinghaus_str1_diff1.png",
		"response": "arrowright",
		"screen": "test",
		"block": "ebbinghaus",
		"correct_response": "arrowleft",
		"trial_type": "image-keyboardmouse-response",
		"trial_index": 19,
		"time_elapsed": 35313,
		"internal_node_id": "0.0-7.0-1.0",
		"prestimulus_duration": 2292,
		"correct": false,
		"block_number": 2,
		"trial_number": 1
	},
	{
		"rt": null,
		"stimulus": "<div style=\"font-size:60px;\">+</div>",
		"response": null,
		"screen": "fixation",
		"trial_type": "html-keyboard-response",
		"trial_index": 20,
		"time_elapsed": 36025,
		"internal_node_id": "0.0-7.0-0.1"
	},
	{
		"rt": 694.9049999821,
		"stimulus": "stimuli/ebbinghaus_str-1_diff-1.png",
		"response": "arrowleft",
		"screen": "test",
		"block": "ebbinghaus",
		"correct_response": "arrowright",
		"trial_type": "image-keyboardmouse-response",
		"trial_index": 21,
		"time_elapsed": 36722,
		"internal_node_id": "0.0-7.0-1.1",
		"prestimulus_duration": 712,
		"correct": false,
		"block_number": 2,
		"trial_number": 2
	},
	{
		"rt": null,
		"stimulus": "<div style=\"font-size:60px;\">+</div>",
		"response": null,
		"screen": "fixation",
		"trial_type": "html-keyboard-response",
		"trial_index": 22,
		"time_elapsed": 37189,
		"internal_node_id": "0.0-7.0-0.2"
	},
	{
		"rt": 796.9999999913853,
		"stimulus": "stimuli/ebbinghaus_str1_diff-1.png",
		"response": "arrowright",
		"screen": "test",
		"block": "ebbinghaus",
		"correct_response": "arrowright",
		"trial_type": "image-keyboardmouse-response",
		"trial_index": 23,
		"time_elapsed": 37988,
		"internal_node_id": "0.0-7.0-1.2",
		"prestimulus_duration": 467,
		"correct": true,
		"block_number": 2,
		"trial_number": 3
	},
	{
		"rt": null,
		"stimulus": "<div style=\"font-size:60px;\">+</div>",
		"response": null,
		"screen": "fixation",
		"trial_type": "html-keyboard-response",
		"trial_index": 24,
		"time_elapsed": 38552,
		"internal_node_id": "0.0-7.0-0.3"
	},
	{
		"rt": 680.1250000135042,
		"stimulus": "stimuli/ebbinghaus_str0_diff-1.png",
		"response": "arrowright",
		"screen": "test",
		"block": "ebbinghaus",
		"correct_response": "arrowright",
		"trial_type": "image-keyboardmouse-response",
		"trial_index": 25,
		"time_elapsed": 39233,
		"internal_node_id": "0.0-7.0-1.3",
		"prestimulus_duration": 564,
		"correct": true,
		"block_number": 2,
		"trial_number": 4
	},
	{
		"rt": null,
		"stimulus": "<div style=\"font-size:60px;\">+</div>",
		"response": null,
		"screen": "fixation",
		"trial_type": "html-keyboard-response",
		"trial_index": 26,
		"time_elapsed": 39978,
		"internal_node_id": "0.0-7.0-0.4"
	},
	{
		"rt": 824.2150000005495,
		"stimulus": "stimuli/ebbinghaus_str0_diff1.png",
		"response": "arrowleft",
		"screen": "test",
		"block": "ebbinghaus",
		"correct_response": "arrowleft",
		"trial_type": "image-keyboardmouse-response",
		"trial_index": 27,
		"time_elapsed": 40804,
		"internal_node_id": "0.0-7.0-1.4",
		"prestimulus_duration": 745,
		"correct": true,
		"block_number": 2,
		"trial_number": 5
	},
	{
		"rt": null,
		"stimulus": "<div style=\"font-size:60px;\">+</div>",
		"response": null,
		"screen": "fixation",
		"trial_type": "html-keyboard-response",
		"trial_index": 28,
		"time_elapsed": 41249,
		"internal_node_id": "0.0-7.0-0.5"
	},
	{
		"rt": 830.5099999997765,
		"stimulus": "stimuli/ebbinghaus_str-1_diff1.png",
		"response": "arrowleft",
		"screen": "test",
		"block": "ebbinghaus",
		"correct_response": "arrowleft",
		"trial_type": "image-keyboardmouse-response",
		"trial_index": 29,
		"time_elapsed": 42081,
		"internal_node_id": "0.0-7.0-1.5",
		"prestimulus_duration": 445,
		"correct": true,
		"block_number": 2,
		"trial_number": 6
	},
	{
		"rt": 3067.3700000043027,
		"stimulus": "<p>Here are your results:</p><hr><p style='color:rgb(76,175,80);'>You responded correctly on <b>66.67%</b> of the trials.</p><p style='color:rgb(233,30,99);'>Your average response time was <b>731.09</b> ms.</p><p style='color:rgb(233,30,99);'>You performed better than <b>0.00</b>% of the population.</p><hr><p>Can you do better in the next illusion?</p>",
		"response": 0,
		"screen": "block_results",
		"trial_type": "html-button-response",
		"trial_index": 30,
		"time_elapsed": 45152,
		"internal_node_id": "0.0-8.0",
		"block": "ebbinghaus",
		"block_number": 2,
		"rt_mean": 731.0924999959146,
		"rt_mean_correct": 782.9625000013039,
		"accuracy": 0.6666666666666666,
		"inverse_efficiency_score": 1174.4437500019558
	},
	{
		"rt": 3933.4300000045914,
		"stimulus": "<p><b>Thank you for participating!</b> Here are your results:</p><hr><p style='color:rgb(76,175,80);'>You responded correctly on <b>83.33%</b> of the trials.</p><p style='color:rgb(233,30,99);'>Your average response time was <b>862.65</b> ms.</p><p style='color:rgb(233,30,99);'>You performed better than <b>0.00</b>% of the population.</p><hr><p> Don't hesitate to spread the word and share this experiment, science appreciates :)</p>",
		"response": 0,
		"screen": "final_results",
		"trial_type": "html-button-response",
		"trial_index": 31,
		"time_elapsed": 49087,
		"internal_node_id": "0.0-9.0",
		"rt_mean": 862.6474999982747,
		"rt_mean_correct": 909.7065000009025,
		"accuracy": 0.8333333333333334,
		"inverse_efficiency_score": 1091.647800001083
	}
]