[
	{
		"success": true,
		"trial_type": "fullscreen",
		"trial_index": 0,
		"time_elapsed": 2633,
		"internal_node_id": "0.0-0.0"
	},
	{
		"rt": 982.1699999738485,
		"stimulus": "<p><b>The Illusion Game</b></p><p>By playing this game, you are also contributing to science, as it was designed by psychologists studying illusions. Therefore, please note that some data from your session will be recorded, such as speed and errors. <b>Don't worry though, it's entirely anonymous!</b></p><p>By participating, you agree on letting us use this data to study the psychology of illusions.</p><p><sub>Please contact (dom.makowski@gmail) for any inquiries.</sub></p>",
		"response": 0,
		"screen": "session_info",
		"participant_id": "20210309_142113_6yadf",
		"experiment_version": "0.0.1",
		"datetime": "09/03/2021 14:21:13",
		"date": "20210309",
		"time": "142113",
		"date_timezone": 8,
		"window_width": 1536,
		"window_height": 722,
		"window_resolution": "1536x722",
		"screen_width": 1536,
		"screen_height": 864,
		"screen_resolution": "1536x864",
		"screen_colordepth": 24,
		"screen_pixeldepth": 24,
		"screen_touchscreen": false,
		"browser_name": "Netscape",
		"browser_codename": "Mozilla",
		"browser_engine": "Gecko",
		"browser_version": "5.0 (Windows NT 10.0; Win64; x64) AppleWebKit/537.36 (KHTML, like Gecko) Chrome/88.0.4324.190 Safari/537.36",
		"browser": "Mozilla/5.0 (Windows NT 10.0; Win64; x64) AppleWebKit/537.36 (KHTML, like Gecko) Chrome/88.0.4324.190 Safari/537.36",
		"system_platform": "Win32",
		"system_language": "en-US",
		"trial_type": "html-button-response",
		"trial_index": 1,
		"time_elapsed": 3617,
		"internal_node_id": "0.0-1.0"
	},
	{
		"rt": 6376.810000045225,
		"response": {
			"Age": "20/04/1996",
			"Initials": "TS"
		},
		"screen": "participant_info_general",
		"trial_type": "survey-text",
		"trial_index": 2,
		"time_elapsed": 9997,
		"internal_node_id": "0.0-2.0"
	},
	{
		"rt": 2478.5450000781566,
		"response": {
			"Q0": "Yes, let me play!"
		},
		"question_order": [
			0
		],
		"screen": "participant_info_repetition",
		"trial_type": "survey-multi-choice",
		"trial_index": 3,
		"time_elapsed": 12477,
		"internal_node_id": "0.0-3.0"
	},
	{
		"success": true,
		"timeout": false,
		"failed_images": [],
		"failed_audio": [],
		"failed_video": [],
		"trial_type": "preload",
		"trial_index": 4,
		"time_elapsed": 12481,
		"internal_node_id": "0.0-5.0"
	},
	{
		"rt": 1329.325000056997,
		"stimulus": "<p>In this experiment, two red circles will appear on the screen.</p><p>Your task is to judge which circle is bigger in size. </p><p>If the <strong>left circle</strong> is bigger, press the <strong>left arrow key</strong> on the keyboard as fast as you can.</p><p>If the <strong>right circle</strong> is bigger, press the <strong>right arrow key</strong> as fast as you can.</p><hr><div style='float: center'><img src='utils/Delboeuf_Demo.png' height='300'></img><p><img src='utils/answer/answer_leftright_keyboard.PNG' height='150'></img></p><p class='small'>For example, <strong>press the left arrow key</strong> here.</p></div>",
		"response": 0,
		"trial_type": "html-button-response",
		"trial_index": 5,
		"time_elapsed": 13811,
		"internal_node_id": "0.0-6.0"
	},
	{
		"rt": null,
		"stimulus": "<div style=\"font-size:60px;\">+</div>",
		"response": null,
		"screen": "fixation",
		"trial_type": "html-keyboard-response",
		"trial_index": 6,
		"time_elapsed": 16116,
		"internal_node_id": "0.0-7.0-0.0"
	},
	{
		"rt": 759.2350000049919,
		"stimulus": "stimuli/Delboeuf_str-0.33_diff0.33.png",
		"response": "arrowleft",
		"screen": "test",
		"block": "delboeuf",
		"correct_response": "arrowleft",
		"trial_type": "image-keyboardmouse-response",
		"trial_index": 7,
		"time_elapsed": 16877,
		"internal_node_id": "0.0-7.0-1.0",
		"prestimulus_duration": 2305,
		"correct": true,
		"block_number": 1,
		"trial_number": 1
	},
	{
		"rt": null,
		"stimulus": "<div style=\"font-size:60px;\">+</div>",
		"response": null,
		"screen": "fixation",
		"trial_type": "html-keyboard-response",
		"trial_index": 8,
		"time_elapsed": 17193,
		"internal_node_id": "0.0-7.0-0.1"
	},
	{
		"rt": 588.7649999931455,
		"stimulus": "stimuli/Delboeuf_str0.33_diff0.33.png",
		"response": "arrowleft",
		"screen": "test",
		"block": "delboeuf",
		"correct_response": "arrowleft",
		"trial_type": "image-keyboardmouse-response",
		"trial_index": 9,
		"time_elapsed": 17783,
		"internal_node_id": "0.0-7.0-1.1",
		"prestimulus_duration": 316,
		"correct": true,
		"block_number": 1,
		"trial_number": 2
	},
	{
		"rt": null,
		"stimulus": "<div style=\"font-size:60px;\">+</div>",
		"response": null,
		"screen": "fixation",
		"trial_type": "html-keyboard-response",
		"trial_index": 10,
		"time_elapsed": 18527,
		"internal_node_id": "0.0-7.0-0.2"
	},
	{
		"rt": 1098.0349997989833,
		"stimulus": "stimuli/Delboeuf_str0.33_diff-0.33.png",
		"response": "arrowright",
		"screen": "test",
		"block": "delboeuf",
		"correct_response": "arrowright",
		"trial_type": "image-keyboardmouse-response",
		"trial_index": 11,
		"time_elapsed": 19626,
		"internal_node_id": "0.0-7.0-1.2",
		"prestimulus_duration": 744,
		"correct": true,
		"block_number": 1,
		"trial_number": 3
	},
	{
		"rt": null,
		"stimulus": "<div style=\"font-size:60px;\">+</div>",
		"response": null,
		"screen": "fixation",
		"trial_type": "html-keyboard-response",
		"trial_index": 12,
		"time_elapsed": 20270,
		"internal_node_id": "0.0-7.0-0.3"
	},
	{
		"rt": 633.9000000152737,
		"stimulus": "stimuli/Delboeuf_str-0.33_diff-0.33.png",
		"response": "arrowleft",
		"screen": "test",
		"block": "delboeuf",
		"correct_response": "arrowright",
		"trial_type": "image-keyboardmouse-response",
		"trial_index": 13,
		"time_elapsed": 20905,
		"internal_node_id": "0.0-7.0-1.3",
		"prestimulus_duration": 644,
		"correct": false,
		"block_number": 1,
		"trial_number": 4
	},
	{
		"rt": 1470.8000000100583,
		"stimulus": "<p>Here are your results:</p><hr><p style='color:rgb(233,30,99);'>You performed better than <b>0.00</b>% of the population.</p><hr><p>Can you do better in the next illusion?</p>",
		"response": 0,
		"screen": "block_results",
		"trial_type": "html-button-response",
		"trial_index": 14,
		"time_elapsed": 22377,
		"internal_node_id": "0.0-8.0",
		"block": "delboeuf",
		"block_number": 1,
		"rt_mean": 769.9837499530986,
		"rt_mean_correct": 815.3449999323735,
		"accuracy": 0.75,
		"inverse_efficiency_score": 1087.126666576498
	},
	{
		"success": true,
		"timeout": false,
		"failed_images": [],
		"failed_audio": [],
		"failed_video": [],
		"trial_type": "preload",
		"trial_index": 15,
		"time_elapsed": 22378,
		"internal_node_id": "0.0-9.0"
	},
	{
		"rt": 1205.8800000231713,
		"stimulus": "<p>In this experiment, two red circles will appear on the screen.</p><p>Your task is to judge which circle is bigger in size. </p><p>If the <strong>left circle</strong> is bigger, press the <strong>left arrow key</strong> on the keyboard as fast as you can.</p><p>If the <strong>right circle</strong> is bigger, press the <strong>right arrow key</strong> as fast as you can.</p><hr><div style='float: center'><img src='utils/Ebbinghaus_Demo.png' height='300'></img><p><img src='utils/answer/answer_leftright_keyboard.PNG' height='150'></img></p><p class='small'>For example, <strong>press the left arrow key</strong> here.</p></div>",
		"response": 0,
		"trial_type": "html-button-response",
		"trial_index": 16,
		"time_elapsed": 23585,
		"internal_node_id": "0.0-10.0"
	},
	{
		"rt": null,
		"stimulus": "<div style=\"font-size:60px;\">+</div>",
		"response": null,
		"screen": "fixation",
		"trial_type": "html-keyboard-response",
		"trial_index": 17,
		"time_elapsed": 25871,
		"internal_node_id": "0.0-11.0-0.0"
	},
	{
		"rt": 609.0899999253452,
		"stimulus": "stimuli/Ebbinghaus_str0.33_diff-0.33.png",
		"response": "arrowright",
		"screen": "test",
		"block": "ebbinghaus",
		"correct_response": "arrowright",
		"trial_type": "image-keyboardmouse-response",
		"trial_index": 18,
		"time_elapsed": 26483,
		"internal_node_id": "0.0-11.0-1.0",
		"prestimulus_duration": 2286,
		"correct": true,
		"block_number": 2,
		"trial_number": 1
	},
	{
		"rt": null,
		"stimulus": "<div style=\"font-size:60px;\">+</div>",
		"response": null,
		"screen": "fixation",
		"trial_type": "html-keyboard-response",
		"trial_index": 19,
		"time_elapsed": 26845,
		"internal_node_id": "0.0-11.0-0.1"
	},
	{
		"rt": 595.8600000012666,
		"stimulus": "stimuli/Ebbinghaus_str-0.33_diff0.33.png",
		"response": "arrowleft",
		"screen": "test",
		"block": "ebbinghaus",
		"correct_response": "arrowleft",
		"trial_type": "image-keyboardmouse-response",
		"trial_index": 20,
		"time_elapsed": 27442,
		"internal_node_id": "0.0-11.0-1.1",
		"prestimulus_duration": 362,
		"correct": true,
		"block_number": 2,
		"trial_number": 2
	},
	{
		"rt": null,
		"stimulus": "<div style=\"font-size:60px;\">+</div>",
		"response": null,
		"screen": "fixation",
		"trial_type": "html-keyboard-response",
		"trial_index": 21,
		"time_elapsed": 28053,
		"internal_node_id": "0.0-11.0-0.2"
	},
	{
		"rt": 510.14499994926155,
		"stimulus": "stimuli/Ebbinghaus_str-0.33_diff-0.33.png",
		"response": "arrowright",
		"screen": "test",
		"block": "ebbinghaus",
		"correct_response": "arrowright",
		"trial_type": "image-keyboardmouse-response",
		"trial_index": 22,
		"time_elapsed": 28564,
		"internal_node_id": "0.0-11.0-1.2",
		"prestimulus_duration": 611,
		"correct": true,
		"block_number": 2,
		"trial_number": 3
	},
	{
		"rt": null,
		"stimulus": "<div style=\"font-size:60px;\">+</div>",
		"response": null,
		"screen": "fixation",
		"trial_type": "html-keyboard-response",
		"trial_index": 23,
		"time_elapsed": 28969,
		"internal_node_id": "0.0-11.0-0.3"
	},
	{
		"rt": 578.5000000614673,
		"stimulus": "stimuli/Ebbinghaus_str0.33_diff0.33.png",
		"response": "arrowright",
		"screen": "test",
		"block": "ebbinghaus",
		"correct_response": "arrowleft",
		"trial_type": "image-keyboardmouse-response",
		"trial_index": 24,
		"time_elapsed": 29549,
		"internal_node_id": "0.0-11.0-1.3",
		"prestimulus_duration": 405,
		"correct": false,
		"block_number": 2,
		"trial_number": 4
	},
	{
		"rt": 1304.5850000344217,
		"stimulus": "<p>Here are your results:</p><hr><p style='color:rgb(233,30,99);'>You performed better than <b>0.00</b>% of the population.</p><hr><p>Can you do better in the next illusion?</p>",
		"response": 0,
		"screen": "block_results",
		"trial_type": "html-button-response",
		"trial_index": 25,
		"time_elapsed": 30854,
		"internal_node_id": "0.0-12.0",
		"block": "ebbinghaus",
		"block_number": 2,
		"rt_mean": 573.3987499843352,
		"rt_mean_correct": 571.6983332919577,
		"accuracy": 0.75,
		"inverse_efficiency_score": 762.264444389277
	},
	{
		"success": true,
		"timeout": false,
		"failed_images": [],
		"failed_audio": [],
		"failed_video": [],
		"trial_type": "preload",
		"trial_index": 26,
		"time_elapsed": 30855,
		"internal_node_id": "0.0-13.0"
	},
	{
		"rt": 838.9549998100847,
		"stimulus": "<p>In this experiment, two red lines will appear on the screen.</p><p>Your task is to judge which line is longer. </p><p>If the <strong>upper horizontal line</strong> is longer, press the <strong>up arrow key</strong> on the keyboard as fast as you can.</p><p>If the <strong>lower horizontal line</strong> is longer, press the <strong>down arrow key</strong> as fast as you can.</p><hr><div style='float: center'><img src='utils/MullerLyer_Demo.png' height='300'></img><p><img src='utils/answer/answer_leftright_keyboard.PNG' height='150'></img></p><p class='small'>For example, <strong>press the up arrow key</strong> here.</p></div>",
		"response": 0,
		"trial_type": "html-button-response",
		"trial_index": 27,
		"time_elapsed": 31695,
		"internal_node_id": "0.0-14.0"
	},
	{
		"rt": null,
		"stimulus": "<div style=\"font-size:60px;\">+</div>",
		"response": null,
		"screen": "fixation",
		"trial_type": "html-keyboard-response",
		"trial_index": 28,
		"time_elapsed": 34016,
		"internal_node_id": "0.0-15.0-0.0"
	},
	{
		"rt": 1031.1949998140335,
		"stimulus": "stimuli/MullerLyer_str50.0_diff-0.1.png",
		"response": "arrowup",
		"screen": "test",
		"block": "mullerlyer",
		"correct_response": "arrowdown",
		"trial_type": "image-keyboardmouse-response",
		"trial_index": 29,
		"time_elapsed": 35050,
		"internal_node_id": "0.0-15.0-1.0",
		"prestimulus_duration": 2321,
		"correct": false,
		"block_number": 3,
		"trial_number": 1
	},
	{
		"rt": null,
		"stimulus": "<div style=\"font-size:60px;\">+</div>",
		"response": null,
		"screen": "fixation",
		"trial_type": "html-keyboard-response",
		"trial_index": 30,
		"time_elapsed": 35353,
		"internal_node_id": "0.0-15.0-0.1"
	},
	{
		"rt": 797.3050000146031,
		"stimulus": "stimuli/MullerLyer_str16.67_diff-0.1.png",
		"response": "arrowdown",
		"screen": "test",
		"block": "mullerlyer",
		"correct_response": "arrowdown",
		"trial_type": "image-keyboardmouse-response",
		"trial_index": 31,
		"time_elapsed": 36151,
		"internal_node_id": "0.0-15.0-1.1",
		"prestimulus_duration": 303,
		"correct": true,
		"block_number": 3,
		"trial_number": 2
	},
	{
		"rt": null,
		"stimulus": "<div style=\"font-size:60px;\">+</div>",
		"response": null,
		"screen": "fixation",
		"trial_type": "html-keyboard-response",
		"trial_index": 32,
		"time_elapsed": 36677,
		"internal_node_id": "0.0-15.0-0.2"
	},
	{
		"rt": 636.4100000355393,
		"stimulus": "stimuli/MullerLyer_str16.67_diff0.1.png",
		"response": "arrowup",
		"screen": "test",
		"block": "mullerlyer",
		"correct_response": "arrowup",
		"trial_type": "image-keyboardmouse-response",
		"trial_index": 33,
		"time_elapsed": 37314,
		"internal_node_id": "0.0-15.0-1.2",
		"prestimulus_duration": 526,
		"correct": true,
		"block_number": 3,
		"trial_number": 3
	},
	{
		"rt": null,
		"stimulus": "<div style=\"font-size:60px;\">+</div>",
		"response": null,
		"screen": "fixation",
		"trial_type": "html-keyboard-response",
		"trial_index": 34,
		"time_elapsed": 37874,
		"internal_node_id": "0.0-15.0-0.3"
	},
	{
		"rt": 1059.364999877289,
		"stimulus": "stimuli/MullerLyer_str50.0_diff0.1.png",
		"response": "arrowup",
		"screen": "test",
		"block": "mullerlyer",
		"correct_response": "arrowup",
		"trial_type": "image-keyboardmouse-response",
		"trial_index": 35,
		"time_elapsed": 38934,
		"internal_node_id": "0.0-15.0-1.3",
		"prestimulus_duration": 560,
		"correct": true,
		"block_number": 3,
		"trial_number": 4
	},
	{
		"rt": 1527.8650000691414,
		"stimulus": "<p>Here are your results:</p><hr><p style='color:rgb(233,30,99);'>You performed better than <b>0.00</b>% of the population.</p><hr><p>Can you do better in the next illusion?</p>",
		"response": 0,
		"screen": "block_results",
		"trial_type": "html-button-response",
		"trial_index": 36,
		"time_elapsed": 40463,
		"internal_node_id": "0.0-16.0",
		"block": "mullerlyer",
		"block_number": 3,
		"rt_mean": 881.0687499353662,
		"rt_mean_correct": 831.0266666424772,
		"accuracy": 0.75,
		"inverse_efficiency_score": 1108.035555523303
	},
	{
		"success": true,
		"timeout": false,
		"failed_images": [],
		"failed_audio": [],
		"failed_video": [],
		"trial_type": "preload",
		"trial_index": 37,
		"time_elapsed": 40463,
		"internal_node_id": "0.0-17.0"
	},
	{
		"rt": 1495.0399999506772,
		"stimulus": "<p>In this experiment, two red lines will appear on the screen.</p><p>Your task is to judge which line is longer. </p><p>If the <strong>upper horizontal line</strong> is longer, press the <strong>up arrow key</strong> on the keyboard as fast as you can.</p><p>If the <strong>lower horizontal line</strong> is longer, press the <strong>down arrow key</strong> as fast as you can.</p><hr><div style='float: center'><img src='utils/Ponzo_Demo.png' height='300'></img><p><img src='utils/answer/answer_leftright_keyboard.PNG' height='150'></img></p><p class='small'>For example, <strong>press the up arrow key</strong> here.</p></div>",
		"response": 0,
		"trial_type": "html-button-response",
		"trial_index": 38,
		"time_elapsed": 41959,
		"internal_node_id": "0.0-18.0"
	},
	{
		"rt": null,
		"stimulus": "<div style=\"font-size:60px;\">+</div>",
		"response": null,
		"screen": "fixation",
		"trial_type": "html-keyboard-response",
		"trial_index": 39,
		"time_elapsed": 44576,
		"internal_node_id": "0.0-19.0-0.0"
	},
	{
		"rt": 648.9349999465048,
		"stimulus": "stimuli/Ponzo_str-6.67_diff-0.3.png",
		"response": "arrowup",
		"screen": "test",
		"block": "ponzo",
		"correct_response": "arrowdown",
		"trial_type": "image-keyboardmouse-response",
		"trial_index": 40,
		"time_elapsed": 45228,
		"internal_node_id": "0.0-19.0-1.0",
		"prestimulus_duration": 2617,
		"correct": false,
		"block_number": 4,
		"trial_number": 1
	},
	{
		"rt": null,
		"stimulus": "<div style=\"font-size:60px;\">+</div>",
		"response": null,
		"screen": "fixation",
		"trial_type": "html-keyboard-response",
		"trial_index": 41,
		"time_elapsed": 45542,
		"internal_node_id": "0.0-19.0-0.1"
	},
	{
		"rt": 712.6150000840425,
		"stimulus": "stimuli/Ponzo_str-20.0_diff0.3.png",
		"response": "arrowup",
		"screen": "test",
		"block": "ponzo",
		"correct_response": "arrowup",
		"trial_type": "image-keyboardmouse-response",
		"trial_index": 42,
		"time_elapsed": 46256,
		"internal_node_id": "0.0-19.0-1.1",
		"prestimulus_duration": 314,
		"correct": true,
		"block_number": 4,
		"trial_number": 2
	},
	{
		"rt": null,
		"stimulus": "<div style=\"font-size:60px;\">+</div>",
		"response": null,
		"screen": "fixation",
		"trial_type": "html-keyboard-response",
		"trial_index": 43,
		"time_elapsed": 46599,
		"internal_node_id": "0.0-19.0-0.2"
	},
	{
		"rt": 677.5549999438226,
		"stimulus": "stimuli/Ponzo_str-20.0_diff-0.3.png",
		"response": "arrowdown",
		"screen": "test",
		"block": "ponzo",
		"correct_response": "arrowdown",
		"trial_type": "image-keyboardmouse-response",
		"trial_index": 44,
		"time_elapsed": 47278,
		"internal_node_id": "0.0-19.0-1.2",
		"prestimulus_duration": 343,
		"correct": true,
		"block_number": 4,
		"trial_number": 3
	},
	{
		"rt": null,
		"stimulus": "<div style=\"font-size:60px;\">+</div>",
		"response": null,
		"screen": "fixation",
		"trial_type": "html-keyboard-response",
		"trial_index": 45,
		"time_elapsed": 47946,
		"internal_node_id": "0.0-19.0-0.3"
	},
	{
		"rt": 694.734999909997,
		"stimulus": "stimuli/Ponzo_str-6.67_diff0.3.png",
		"response": "arrowup",
		"screen": "test",
		"block": "ponzo",
		"correct_response": "arrowup",
		"trial_type": "image-keyboardmouse-response",
		"trial_index": 46,
		"time_elapsed": 48641,
		"internal_node_id": "0.0-19.0-1.3",
		"prestimulus_duration": 668,
		"correct": true,
		"block_number": 4,
		"trial_number": 4
	},
	{
		"rt": 1514.7550001274794,
		"stimulus": "<p>Here are your results:</p><hr><p style='color:rgb(233,30,99);'>You performed better than <b>0.00</b>% of the population.</p><hr><p>Can you do better in the next illusion?</p>",
		"response": 0,
		"screen": "block_results",
		"trial_type": "html-button-response",
		"trial_index": 47,
		"time_elapsed": 50157,
		"internal_node_id": "0.0-20.0",
		"block": "ponzo",
		"block_number": 4,
		"rt_mean": 683.4599999710917,
		"rt_mean_correct": 694.9683333126208,
		"accuracy": 0.75,
		"inverse_efficiency_score": 926.6244444168277
	},
	{
		"rt": 894.8800000362098,
		"stimulus": "<p><b>Thank you for participating!</b> Here are your results:</p><hr><p style='color:rgb(233,30,99);'>You performed better than <b>0.00</b>% of the population.</p><hr><p> Don't hesitate to spread the word and share this experiment, science appreciates :)</p>",
		"response": 0,
		"screen": "final_results",
		"trial_type": "html-button-response",
		"trial_index": 48,
		"time_elapsed": 51053,
		"internal_node_id": "0.0-21.0",
		"rt_mean": 726.9778124609729,
		"rt_mean_correct": 728.2595832948573,
		"accuracy": 0.75,
		"inverse_efficiency_score": 971.0127777264764
	}
]