[
	{
		"success": true,
		"trial_type": "fullscreen",
		"trial_index": 0,
		"time_elapsed": 2362,
		"internal_node_id": "0.0-0.0"
	},
	{
		"rt": 437.1099998243153,
		"stimulus": "<p><b>The Illusion Game</b></p><p>By playing this game, you are also contributing to science, as it was designed by psychologists studying illusions. Therefore, please note that some data from your session will be recorded, such as speed and errors. <b>Don't worry though, it's entirely anonymous!</b></p><p>By participating, you agree on letting us use this data to study the psychology of illusions.</p><p><sub>Please contact (dom.makowski@gmail) for any inquiries.</sub></p>",
		"response": 0,
		"screen": "session_info",
		"participant_id": "20210310_182854_hqvma",
		"experiment_version": "0.0.1",
		"datetime": "10/03/2021 18:28:54",
		"date": "20210310",
		"time": "182854",
		"date_timezone": 8,
		"window_width": 1536,
		"window_height": 722,
		"window_resolution": "1536x722",
		"screen_width": 1536,
		"screen_height": 864,
		"screen_resolution": "1536x864",
		"screen_colordepth": 24,
		"screen_pixeldepth": 24,
		"screen_touchscreen": false,
		"browser_name": "Netscape",
		"browser_codename": "Mozilla",
		"browser_engine": "Gecko",
		"browser_version": "5.0 (Windows NT 10.0; Win64; x64) AppleWebKit/537.36 (KHTML, like Gecko) Chrome/89.0.4389.82 Safari/537.36",
		"browser": "Mozilla/5.0 (Windows NT 10.0; Win64; x64) AppleWebKit/537.36 (KHTML, like Gecko) Chrome/89.0.4389.82 Safari/537.36",
		"system_platform": "Win32",
		"system_language": "en-US",
		"trial_type": "html-button-response",
		"trial_index": 1,
		"time_elapsed": 2801,
		"internal_node_id": "0.0-1.0"
	},
	{
		"rt": 476.6850001178682,
		"response": {
			"Age": "",
			"Initials": ""
		},
		"screen": "participant_info_general",
		"trial_type": "survey-text",
		"trial_index": 2,
		"time_elapsed": 3281,
		"internal_node_id": "0.0-2.0"
	},
	{
		"rt": 1586.6249999962747,
		"response": {
			"Q0": "Yes, let me play!"
		},
		"question_order": [
			0
		],
		"screen": "participant_info_repetition",
		"trial_type": "survey-multi-choice",
		"trial_index": 3,
		"time_elapsed": 4869,
		"internal_node_id": "0.0-3.0"
	},
	{
		"success": true,
		"timeout": false,
		"failed_images": [],
		"failed_audio": [],
		"failed_video": [],
		"trial_type": "preload",
		"trial_index": 4,
		"time_elapsed": 4870,
		"internal_node_id": "0.0-5.0"
	},
	{
		"rt": 1349.5999998413026,
		"stimulus": "<p>In this experiment, two red circles will appear side by side each other on the screen. </p><p>Your task is to select which <strong>red</strong> circle is bigger in size as fast as you can without making any errors. </p><p>Don't let yourself be distracted by the black outlines around the red circles!</p><p>If the <strong>left circle</strong> is bigger, press the <strong>left arrow key</strong> on the keyboard as fast as you can.</p><p>If the <strong>right circle</strong> is bigger, press the <strong>right arrow key</strong> as fast as you can.</p><hr><div style='float: center'><img src='utils/Delboeuf_Demo.png' height='300'></img><p><img src='utils/answer/answer_leftright_keyboard.PNG' height='150'></img></p><p class='small'>For example, <strong>press the left arrow key</strong> here.</p></div>",
		"response": 0,
		"trial_type": "html-button-response",
		"trial_index": 5,
		"time_elapsed": 6221,
		"internal_node_id": "0.0-6.0"
	},
	{
		"rt": null,
		"stimulus": "<div style=\"font-size:60px;\">+</div>",
		"response": null,
		"screen": "fixation",
		"trial_type": "html-keyboard-response",
		"trial_index": 6,
		"time_elapsed": 8975,
		"internal_node_id": "0.0-7.0-0.0"
	},
	{
		"rt": 1180.1150001119822,
		"stimulus": "stimuli/Delboeuf_str0.33_diff0.33.png",
		"response": "arrowleft",
		"screen": "test",
		"block": "delboeuf",
		"correct_response": "arrowleft",
		"trial_type": "image-keyboardmouse-response",
		"trial_index": 7,
		"time_elapsed": 10163,
		"internal_node_id": "0.0-7.0-1.0",
		"prestimulus_duration": 2754,
		"correct": true,
		"block_number": 1,
		"trial_number": 1
	},
	{
		"rt": null,
		"stimulus": "<div style=\"font-size:60px;\">+</div>",
		"response": null,
		"screen": "fixation",
		"trial_type": "html-keyboard-response",
		"trial_index": 8,
		"time_elapsed": 10681,
		"internal_node_id": "0.0-7.0-0.1"
	},
	{
		"rt": 574.5349999051541,
		"stimulus": "stimuli/Delboeuf_str0.33_diff-1.0.png",
		"response": "arrowright",
		"screen": "test",
		"block": "delboeuf",
		"correct_response": "arrowright",
		"trial_type": "image-keyboardmouse-response",
		"trial_index": 9,
		"time_elapsed": 11257,
		"internal_node_id": "0.0-7.0-1.1",
		"prestimulus_duration": 518,
		"correct": true,
		"block_number": 1,
		"trial_number": 2
	},
	{
		"rt": null,
		"stimulus": "<div style=\"font-size:60px;\">+</div>",
		"response": null,
		"screen": "fixation",
		"trial_type": "html-keyboard-response",
		"trial_index": 10,
		"time_elapsed": 11859,
		"internal_node_id": "0.0-7.0-0.2"
	},
	{
		"rt": 615.7450000755489,
		"stimulus": "stimuli/Delboeuf_str-1.0_diff-1.0.png",
		"response": "arrowright",
		"screen": "test",
		"block": "delboeuf",
		"correct_response": "arrowright",
		"trial_type": "image-keyboardmouse-response",
		"trial_index": 11,
		"time_elapsed": 12476,
		"internal_node_id": "0.0-7.0-1.2",
		"prestimulus_duration": 602,
		"correct": true,
		"block_number": 1,
		"trial_number": 3
	},
	{
		"rt": null,
		"stimulus": "<div style=\"font-size:60px;\">+</div>",
		"response": null,
		"screen": "fixation",
		"trial_type": "html-keyboard-response",
		"trial_index": 12,
		"time_elapsed": 12857,
		"internal_node_id": "0.0-7.0-0.3"
	},
	{
		"rt": 598.5499999951571,
		"stimulus": "stimuli/Delboeuf_str0.33_diff1.0.png",
		"response": "arrowleft",
		"screen": "test",
		"block": "delboeuf",
		"correct_response": "arrowleft",
		"trial_type": "image-keyboardmouse-response",
		"trial_index": 13,
		"time_elapsed": 13456,
		"internal_node_id": "0.0-7.0-1.3",
		"prestimulus_duration": 381,
		"correct": true,
		"block_number": 1,
		"trial_number": 4
	},
	{
		"rt": null,
		"stimulus": "<div style=\"font-size:60px;\">+</div>",
		"response": null,
		"screen": "fixation",
		"trial_type": "html-keyboard-response",
		"trial_index": 14,
		"time_elapsed": 13934,
		"internal_node_id": "0.0-7.0-0.4"
	},
	{
		"rt": 624.1900001186877,
		"stimulus": "stimuli/Delboeuf_str-0.33_diff1.0.png",
		"response": "arrowleft",
		"screen": "test",
		"block": "delboeuf",
		"correct_response": "arrowleft",
		"trial_type": "image-keyboardmouse-response",
		"trial_index": 15,
		"time_elapsed": 14559,
		"internal_node_id": "0.0-7.0-1.4",
		"prestimulus_duration": 478,
		"correct": true,
		"block_number": 1,
		"trial_number": 5
	},
	{
		"rt": null,
		"stimulus": "<div style=\"font-size:60px;\">+</div>",
		"response": null,
		"screen": "fixation",
		"trial_type": "html-keyboard-response",
		"trial_index": 16,
		"time_elapsed": 15168,
		"internal_node_id": "0.0-7.0-0.5"
	},
	{
		"rt": 334.1299998573959,
		"stimulus": "stimuli/Delboeuf_str1.0_diff0.33.png",
		"response": "arrowleft",
		"screen": "test",
		"block": "delboeuf",
		"correct_response": "arrowleft",
		"trial_type": "image-keyboardmouse-response",
		"trial_index": 17,
		"time_elapsed": 15504,
		"internal_node_id": "0.0-7.0-1.5",
		"prestimulus_duration": 609,
		"correct": true,
		"block_number": 1,
		"trial_number": 6
	},
	{
		"rt": null,
		"stimulus": "<div style=\"font-size:60px;\">+</div>",
		"response": null,
		"screen": "fixation",
		"trial_type": "html-keyboard-response",
		"trial_index": 18,
		"time_elapsed": 15779,
		"internal_node_id": "0.0-7.0-0.6"
	},
	{
		"rt": 559.4050001818687,
		"stimulus": "stimuli/Delboeuf_str1.0_diff-1.0.png",
		"response": "arrowright",
		"screen": "test",
		"block": "delboeuf",
		"correct_response": "arrowright",
		"trial_type": "image-keyboardmouse-response",
		"trial_index": 19,
		"time_elapsed": 16339,
		"internal_node_id": "0.0-7.0-1.6",
		"prestimulus_duration": 275,
		"correct": true,
		"block_number": 1,
		"trial_number": 7
	},
	{
		"rt": null,
		"stimulus": "<div style=\"font-size:60px;\">+</div>",
		"response": null,
		"screen": "fixation",
		"trial_type": "html-keyboard-response",
		"trial_index": 20,
		"time_elapsed": 16699,
		"internal_node_id": "0.0-7.0-0.7"
	},
	{
		"rt": 590.2849999256432,
		"stimulus": "stimuli/Delboeuf_str-0.33_diff0.33.png",
		"response": "arrowright",
		"screen": "test",
		"block": "delboeuf",
		"correct_response": "arrowleft",
		"trial_type": "image-keyboardmouse-response",
		"trial_index": 21,
		"time_elapsed": 17291,
		"internal_node_id": "0.0-7.0-1.7",
		"prestimulus_duration": 360,
		"correct": false,
		"block_number": 1,
		"trial_number": 8
	},
	{
		"rt": null,
		"stimulus": "<div style=\"font-size:60px;\">+</div>",
		"response": null,
		"screen": "fixation",
		"trial_type": "html-keyboard-response",
		"trial_index": 22,
		"time_elapsed": 17753,
		"internal_node_id": "0.0-7.0-0.8"
	},
	{
		"rt": 490.4850001912564,
		"stimulus": "stimuli/Delboeuf_str-1.0_diff-0.33.png",
		"response": "arrowright",
		"screen": "test",
		"block": "delboeuf",
		"correct_response": "arrowright",
		"trial_type": "image-keyboardmouse-response",
		"trial_index": 23,
		"time_elapsed": 18244,
		"internal_node_id": "0.0-7.0-1.8",
		"prestimulus_duration": 462,
		"correct": true,
		"block_number": 1,
		"trial_number": 9
	},
	{
		"rt": null,
		"stimulus": "<div style=\"font-size:60px;\">+</div>",
		"response": null,
		"screen": "fixation",
		"trial_type": "html-keyboard-response",
		"trial_index": 24,
		"time_elapsed": 18737,
		"internal_node_id": "0.0-7.0-0.9"
	},
	{
		"rt": 514.0949999913573,
		"stimulus": "stimuli/Delboeuf_str-1.0_diff0.33.png",
		"response": "arrowright",
		"screen": "test",
		"block": "delboeuf",
		"correct_response": "arrowleft",
		"trial_type": "image-keyboardmouse-response",
		"trial_index": 25,
		"time_elapsed": 19252,
		"internal_node_id": "0.0-7.0-1.9",
		"prestimulus_duration": 493,
		"correct": false,
		"block_number": 1,
		"trial_number": 10
	},
	{
		"rt": null,
		"stimulus": "<div style=\"font-size:60px;\">+</div>",
		"response": null,
		"screen": "fixation",
		"trial_type": "html-keyboard-response",
		"trial_index": 26,
		"time_elapsed": 19693,
		"internal_node_id": "0.0-7.0-0.10"
	},
	{
		"rt": 536.6599999833852,
		"stimulus": "stimuli/Delboeuf_str-1.0_diff1.0.png",
		"response": "arrowleft",
		"screen": "test",
		"block": "delboeuf",
		"correct_response": "arrowleft",
		"trial_type": "image-keyboardmouse-response",
		"trial_index": 27,
		"time_elapsed": 20231,
		"internal_node_id": "0.0-7.0-1.10",
		"prestimulus_duration": 441,
		"correct": true,
		"block_number": 1,
		"trial_number": 11
	},
	{
		"rt": null,
		"stimulus": "<div style=\"font-size:60px;\">+</div>",
		"response": null,
		"screen": "fixation",
		"trial_type": "html-keyboard-response",
		"trial_index": 28,
		"time_elapsed": 20964,
		"internal_node_id": "0.0-7.0-0.11"
	},
	{
		"rt": 611.6599999368191,
		"stimulus": "stimuli/Delboeuf_str1.0_diff-0.33.png",
		"response": "arrowright",
		"screen": "test",
		"block": "delboeuf",
		"correct_response": "arrowright",
		"trial_type": "image-keyboardmouse-response",
		"trial_index": 29,
		"time_elapsed": 21576,
		"internal_node_id": "0.0-7.0-1.11",
		"prestimulus_duration": 733,
		"correct": true,
		"block_number": 1,
		"trial_number": 12
	},
	{
		"rt": null,
		"stimulus": "<div style=\"font-size:60px;\">+</div>",
		"response": null,
		"screen": "fixation",
		"trial_type": "html-keyboard-response",
		"trial_index": 30,
		"time_elapsed": 22112,
		"internal_node_id": "0.0-7.0-0.12"
	},
	{
		"rt": 575.3750000149012,
		"stimulus": "stimuli/Delboeuf_str-0.33_diff-1.0.png",
		"response": "arrowright",
		"screen": "test",
		"block": "delboeuf",
		"correct_response": "arrowright",
		"trial_type": "image-keyboardmouse-response",
		"trial_index": 31,
		"time_elapsed": 22688,
		"internal_node_id": "0.0-7.0-1.12",
		"prestimulus_duration": 536,
		"correct": true,
		"block_number": 1,
		"trial_number": 13
	},
	{
		"rt": null,
		"stimulus": "<div style=\"font-size:60px;\">+</div>",
		"response": null,
		"screen": "fixation",
		"trial_type": "html-keyboard-response",
		"trial_index": 32,
		"time_elapsed": 23411,
		"internal_node_id": "0.0-7.0-0.13"
	},
	{
		"rt": 540.7750001177192,
		"stimulus": "stimuli/Delboeuf_str1.0_diff1.0.png",
		"response": "arrowright",
		"screen": "test",
		"block": "delboeuf",
		"correct_response": "arrowleft",
		"trial_type": "image-keyboardmouse-response",
		"trial_index": 33,
		"time_elapsed": 23952,
		"internal_node_id": "0.0-7.0-1.13",
		"prestimulus_duration": 723,
		"correct": false,
		"block_number": 1,
		"trial_number": 14
	},
	{
		"rt": null,
		"stimulus": "<div style=\"font-size:60px;\">+</div>",
		"response": null,
		"screen": "fixation",
		"trial_type": "html-keyboard-response",
		"trial_index": 34,
		"time_elapsed": 24365,
		"internal_node_id": "0.0-7.0-0.14"
	},
	{
		"rt": 888.7999998405576,
		"stimulus": "stimuli/Delboeuf_str-0.33_diff-0.33.png",
		"response": "arrowright",
		"screen": "test",
		"block": "delboeuf",
		"correct_response": "arrowright",
		"trial_type": "image-keyboardmouse-response",
		"trial_index": 35,
		"time_elapsed": 25255,
		"internal_node_id": "0.0-7.0-1.14",
		"prestimulus_duration": 413,
		"correct": true,
		"block_number": 1,
		"trial_number": 15
	},
	{
		"rt": null,
		"stimulus": "<div style=\"font-size:60px;\">+</div>",
		"response": null,
		"screen": "fixation",
		"trial_type": "html-keyboard-response",
		"trial_index": 36,
		"time_elapsed": 25892,
		"internal_node_id": "0.0-7.0-0.15"
	},
	{
		"rt": 238.72999986633658,
		"stimulus": "stimuli/Delboeuf_str0.33_diff-0.33.png",
		"response": "arrowright",
		"screen": "test",
		"block": "delboeuf",
		"correct_response": "arrowright",
		"trial_type": "image-keyboardmouse-response",
		"trial_index": 37,
		"time_elapsed": 26131,
		"internal_node_id": "0.0-7.0-1.15",
		"prestimulus_duration": 637,
		"correct": true,
		"block_number": 1,
		"trial_number": 16
	},
	{
		"rt": 1484.4400000292808,
		"stimulus": "<p>Your score for this illusion is <p style=\"color: black; font-size: 48px; font-weight: bold;\">4259</p><hr><p style='color:rgb(76,175,80);'>You performed better than <b>99.76</b>% of the population.</p><hr><p>Can you do better in the next illusion?</p>",
		"response": 0,
		"screen": "block_results",
		"trial_type": "html-button-response",
		"trial_index": 38,
		"time_elapsed": 27617,
		"internal_node_id": "0.0-8.0",
		"block": "delboeuf",
		"block_number": 1,
		"rt_mean": 592.0959375071106,
		"rt_mean_correct": 602.1830769291578,
		"accuracy": 0.8125,
		"inverse_efficiency_score": 741.148402374348
	},
	{
		"success": true,
		"timeout": false,
		"failed_images": [],
		"failed_audio": [],
		"failed_video": [],
		"trial_type": "preload",
		"trial_index": 39,
		"time_elapsed": 27618,
		"internal_node_id": "0.0-9.0"
	},
	{
		"rt": 1722.865000134334,
		"stimulus": "<p>In this experiment, two red circles will appear side by side each other on the screen. </p><p>Your task is to select which <strong>red</strong> circle is bigger in size as fast as you can without making any errors. </p><p>Don't let yourself be distracted by the small black circles around the red circles!</p><p>If the <strong>left circle</strong> is bigger, press the <strong>left arrow key</strong> on the keyboard as fast as you can.</p><p>If the <strong>right circle</strong> is bigger, press the <strong>right arrow key</strong> as fast as you can.</p><hr><div style='float: center'><img src='utils/Ebbinghaus_Demo.png' height='300'></img><p><img src='utils/answer/answer_leftright_keyboard.PNG' height='150'></img></p><p class='small'>For example, <strong>press the left arrow key</strong> here.</p></div>",
		"response": 0,
		"trial_type": "html-button-response",
		"trial_index": 40,
		"time_elapsed": 29343,
		"internal_node_id": "0.0-10.0"
	},
	{
		"rt": null,
		"stimulus": "<div style=\"font-size:60px;\">+</div>",
		"response": null,
		"screen": "fixation",
		"trial_type": "html-keyboard-response",
		"trial_index": 41,
		"time_elapsed": 32048,
		"internal_node_id": "0.0-11.0-0.0"
	},
	{
		"rt": 587.254999903962,
		"stimulus": "stimuli/Ebbinghaus_str0.33_diff-0.33.png",
		"response": "arrowright",
		"screen": "test",
		"block": "ebbinghaus",
		"correct_response": "arrowright",
		"trial_type": "image-keyboardmouse-response",
		"trial_index": 42,
		"time_elapsed": 32638,
		"internal_node_id": "0.0-11.0-1.0",
		"prestimulus_duration": 2705,
		"correct": true,
		"block_number": 2,
		"trial_number": 1
	},
	{
		"rt": null,
		"stimulus": "<div style=\"font-size:60px;\">+</div>",
		"response": null,
		"screen": "fixation",
		"trial_type": "html-keyboard-response",
		"trial_index": 43,
		"time_elapsed": 33162,
		"internal_node_id": "0.0-11.0-0.1"
	},
	{
		"rt": 377.00500013306737,
		"stimulus": "stimuli/Ebbinghaus_str-0.33_diff1.0.png",
		"response": "arrowright",
		"screen": "test",
		"block": "ebbinghaus",
		"correct_response": "arrowleft",
		"trial_type": "image-keyboardmouse-response",
		"trial_index": 44,
		"time_elapsed": 33541,
		"internal_node_id": "0.0-11.0-1.1",
		"prestimulus_duration": 524,
		"correct": false,
		"block_number": 2,
		"trial_number": 2
	},
	{
		"rt": null,
		"stimulus": "<div style=\"font-size:60px;\">+</div>",
		"response": null,
		"screen": "fixation",
		"trial_type": "html-keyboard-response",
		"trial_index": 45,
		"time_elapsed": 33858,
		"internal_node_id": "0.0-11.0-0.2"
	},
	{
		"rt": 567.0849999878556,
		"stimulus": "stimuli/Ebbinghaus_str-1.0_diff-1.0.png",
		"response": "arrowleft",
		"screen": "test",
		"block": "ebbinghaus",
		"correct_response": "arrowright",
		"trial_type": "image-keyboardmouse-response",
		"trial_index": 46,
		"time_elapsed": 34427,
		"internal_node_id": "0.0-11.0-1.2",
		"prestimulus_duration": 317,
		"correct": false,
		"block_number": 2,
		"trial_number": 3
	},
	{
		"rt": null,
		"stimulus": "<div style=\"font-size:60px;\">+</div>",
		"response": null,
		"screen": "fixation",
		"trial_type": "html-keyboard-response",
		"trial_index": 47,
		"time_elapsed": 34928,
		"internal_node_id": "0.0-11.0-0.3"
	},
	{
		"rt": 479.52000005170703,
		"stimulus": "stimuli/Ebbinghaus_str0.33_diff0.33.png",
		"response": "arrowright",
		"screen": "test",
		"block": "ebbinghaus",
		"correct_response": "arrowleft",
		"trial_type": "image-keyboardmouse-response",
		"trial_index": 48,
		"time_elapsed": 35408,
		"internal_node_id": "0.0-11.0-1.3",
		"prestimulus_duration": 501,
		"correct": false,
		"block_number": 2,
		"trial_number": 4
	},
	{
		"rt": null,
		"stimulus": "<div style=\"font-size:60px;\">+</div>",
		"response": null,
		"screen": "fixation",
		"trial_type": "html-keyboard-response",
		"trial_index": 49,
		"time_elapsed": 35938,
		"internal_node_id": "0.0-11.0-0.4"
	},
	{
		"rt": 608.2450000103563,
		"stimulus": "stimuli/Ebbinghaus_str-1.0_diff1.0.png",
		"response": "arrowleft",
		"screen": "test",
		"block": "ebbinghaus",
		"correct_response": "arrowleft",
		"trial_type": "image-keyboardmouse-response",
		"trial_index": 50,
		"time_elapsed": 36547,
		"internal_node_id": "0.0-11.0-1.4",
		"prestimulus_duration": 530,
		"correct": true,
		"block_number": 2,
		"trial_number": 5
	},
	{
		"rt": null,
		"stimulus": "<div style=\"font-size:60px;\">+</div>",
		"response": null,
		"screen": "fixation",
		"trial_type": "html-keyboard-response",
		"trial_index": 51,
		"time_elapsed": 37002,
		"internal_node_id": "0.0-11.0-0.5"
	},
	{
		"rt": 670.990000013262,
		"stimulus": "stimuli/Ebbinghaus_str-1.0_diff-0.33.png",
		"response": "arrowright",
		"screen": "test",
		"block": "ebbinghaus",
		"correct_response": "arrowright",
		"trial_type": "image-keyboardmouse-response",
		"trial_index": 52,
		"time_elapsed": 37673,
		"internal_node_id": "0.0-11.0-1.5",
		"prestimulus_duration": 455,
		"correct": true,
		"block_number": 2,
		"trial_number": 6
	},
	{
		"rt": null,
		"stimulus": "<div style=\"font-size:60px;\">+</div>",
		"response": null,
		"screen": "fixation",
		"trial_type": "html-keyboard-response",
		"trial_index": 53,
		"time_elapsed": 38387,
		"internal_node_id": "0.0-11.0-0.6"
	},
	{
		"rt": 714.3399999476969,
		"stimulus": "stimuli/Ebbinghaus_str0.33_diff1.0.png",
		"response": "arrowleft",
		"screen": "test",
		"block": "ebbinghaus",
		"correct_response": "arrowleft",
		"trial_type": "image-keyboardmouse-response",
		"trial_index": 54,
		"time_elapsed": 39102,
		"internal_node_id": "0.0-11.0-1.6",
		"prestimulus_duration": 714,
		"correct": true,
		"block_number": 2,
		"trial_number": 7
	},
	{
		"rt": null,
		"stimulus": "<div style=\"font-size:60px;\">+</div>",
		"response": null,
		"screen": "fixation",
		"trial_type": "html-keyboard-response",
		"trial_index": 55,
		"time_elapsed": 39666,
		"internal_node_id": "0.0-11.0-0.7"
	},
	{
		"rt": 840.2500001247972,
		"stimulus": "stimuli/Ebbinghaus_str0.33_diff-1.0.png",
		"response": "arrowright",
		"screen": "test",
		"block": "ebbinghaus",
		"correct_response": "arrowright",
		"trial_type": "image-keyboardmouse-response",
		"trial_index": 56,
		"time_elapsed": 40508,
		"internal_node_id": "0.0-11.0-1.7",
		"prestimulus_duration": 564,
		"correct": true,
		"block_number": 2,
		"trial_number": 8
	},
	{
		"rt": null,
		"stimulus": "<div style=\"font-size:60px;\">+</div>",
		"response": null,
		"screen": "fixation",
		"trial_type": "html-keyboard-response",
		"trial_index": 57,
		"time_elapsed": 41176,
		"internal_node_id": "0.0-11.0-0.8"
	},
	{
		"rt": 453.81500013172626,
		"stimulus": "stimuli/Ebbinghaus_str1.0_diff1.0.png",
		"response": "arrowright",
		"screen": "test",
		"block": "ebbinghaus",
		"correct_response": "arrowleft",
		"trial_type": "image-keyboardmouse-response",
		"trial_index": 58,
		"time_elapsed": 41631,
		"internal_node_id": "0.0-11.0-1.8",
		"prestimulus_duration": 668,
		"correct": false,
		"block_number": 2,
		"trial_number": 9
	},
	{
		"rt": null,
		"stimulus": "<div style=\"font-size:60px;\">+</div>",
		"response": null,
		"screen": "fixation",
		"trial_type": "html-keyboard-response",
		"trial_index": 59,
		"time_elapsed": 42136,
		"internal_node_id": "0.0-11.0-0.9"
	},
	{
		"rt": 640.0999999605119,
		"stimulus": "stimuli/Ebbinghaus_str1.0_diff-1.0.png",
		"response": "arrowright",
		"screen": "test",
		"block": "ebbinghaus",
		"correct_response": "arrowright",
		"trial_type": "image-keyboardmouse-response",
		"trial_index": 60,
		"time_elapsed": 42776,
		"internal_node_id": "0.0-11.0-1.9",
		"prestimulus_duration": 505,
		"correct": true,
		"block_number": 2,
		"trial_number": 10
	},
	{
		"rt": null,
		"stimulus": "<div style=\"font-size:60px;\">+</div>",
		"response": null,
		"screen": "fixation",
		"trial_type": "html-keyboard-response",
		"trial_index": 61,
		"time_elapsed": 43408,
		"internal_node_id": "0.0-11.0-0.10"
	},
	{
		"rt": 612.8450001124293,
		"stimulus": "stimuli/Ebbinghaus_str-0.33_diff-0.33.png",
		"response": "arrowright",
		"screen": "test",
		"block": "ebbinghaus",
		"correct_response": "arrowright",
		"trial_type": "image-keyboardmouse-response",
		"trial_index": 62,
		"time_elapsed": 44022,
		"internal_node_id": "0.0-11.0-1.10",
		"prestimulus_duration": 632,
		"correct": true,
		"block_number": 2,
		"trial_number": 11
	},
	{
		"rt": null,
		"stimulus": "<div style=\"font-size:60px;\">+</div>",
		"response": null,
		"screen": "fixation",
		"trial_type": "html-keyboard-response",
		"trial_index": 63,
		"time_elapsed": 44383,
		"internal_node_id": "0.0-11.0-0.11"
	},
	{
		"rt": 3215.31999995932,
		"stimulus": "stimuli/Ebbinghaus_str-1.0_diff0.33.png",
		"response": "arrowright",
		"screen": "test",
		"block": "ebbinghaus",
		"correct_response": "arrowleft",
		"trial_type": "image-keyboardmouse-response",
		"trial_index": 64,
		"time_elapsed": 47599,
		"internal_node_id": "0.0-11.0-1.11",
		"prestimulus_duration": 361,
		"correct": false,
		"block_number": 2,
		"trial_number": 12
	},
	{
		"rt": null,
		"stimulus": "<div style=\"font-size:60px;\">+</div>",
		"response": null,
		"screen": "fixation",
		"trial_type": "html-keyboard-response",
		"trial_index": 65,
		"time_elapsed": 47884,
		"internal_node_id": "0.0-11.0-0.12"
	},
	{
		"rt": 730.0549999345094,
		"stimulus": "stimuli/Ebbinghaus_str-0.33_diff-1.0.png",
		"response": "arrowright",
		"screen": "test",
		"block": "ebbinghaus",
		"correct_response": "arrowright",
		"trial_type": "image-keyboardmouse-response",
		"trial_index": 66,
		"time_elapsed": 48616,
		"internal_node_id": "0.0-11.0-1.12",
		"prestimulus_duration": 285,
		"correct": true,
		"block_number": 2,
		"trial_number": 13
	},
	{
		"rt": null,
		"stimulus": "<div style=\"font-size:60px;\">+</div>",
		"response": null,
		"screen": "fixation",
		"trial_type": "html-keyboard-response",
		"trial_index": 67,
		"time_elapsed": 48934,
		"internal_node_id": "0.0-11.0-0.13"
	},
	{
		"rt": 539.2800001427531,
		"stimulus": "stimuli/Ebbinghaus_str-0.33_diff0.33.png",
		"response": "arrowright",
		"screen": "test",
		"block": "ebbinghaus",
		"correct_response": "arrowleft",
		"trial_type": "image-keyboardmouse-response",
		"trial_index": 68,
		"time_elapsed": 49474,
		"internal_node_id": "0.0-11.0-1.13",
		"prestimulus_duration": 318,
		"correct": false,
		"block_number": 2,
		"trial_number": 14
	},
	{
		"rt": null,
		"stimulus": "<div style=\"font-size:60px;\">+</div>",
		"response": null,
		"screen": "fixation",
		"trial_type": "html-keyboard-response",
		"trial_index": 69,
		"time_elapsed": 49873,
		"internal_node_id": "0.0-11.0-0.14"
	},
	{
		"rt": 534.0149998664856,
		"stimulus": "stimuli/Ebbinghaus_str1.0_diff-0.33.png",
		"response": "arrowright",
		"screen": "test",
		"block": "ebbinghaus",
		"correct_response": "arrowright",
		"trial_type": "image-keyboardmouse-response",
		"trial_index": 70,
		"time_elapsed": 50409,
		"internal_node_id": "0.0-11.0-1.14",
		"prestimulus_duration": 399,
		"correct": true,
		"block_number": 2,
		"trial_number": 15
	},
	{
		"rt": null,
		"stimulus": "<div style=\"font-size:60px;\">+</div>",
		"response": null,
		"screen": "fixation",
		"trial_type": "html-keyboard-response",
		"trial_index": 71,
		"time_elapsed": 50963,
		"internal_node_id": "0.0-11.0-0.15"
	},
	{
		"rt": 736.3299999851733,
		"stimulus": "stimuli/Ebbinghaus_str1.0_diff0.33.png",
		"response": "arrowleft",
		"screen": "test",
		"block": "ebbinghaus",
		"correct_response": "arrowleft",
		"trial_type": "image-keyboardmouse-response",
		"trial_index": 72,
		"time_elapsed": 51700,
		"internal_node_id": "0.0-11.0-1.15",
		"prestimulus_duration": 554,
		"correct": true,
		"block_number": 2,
		"trial_number": 16
	},
	{
		"rt": 1614.7100001107901,
		"stimulus": "<p>Your score for this illusion is <p style=\"color: black; font-size: 48px; font-weight: bold;\">3932</p><hr><p style='color:rgb(76,175,80);'>You performed better than <b>0.01</b>% of the population.</p><hr><p>Can you do better in the next illusion?</p>",
		"response": 0,
		"screen": "block_results",
		"trial_type": "html-button-response",
		"trial_index": 73,
		"time_elapsed": 53316,
		"internal_node_id": "0.0-12.0",
		"block": "ebbinghaus",
		"block_number": 2,
		"rt_mean": 769.1531250166008,
		"rt_mean_correct": 667.4424999859184,
		"accuracy": 0.625,
		"inverse_efficiency_score": 1067.9079999774694
	},
	{
		"success": true,
		"timeout": false,
		"failed_images": [],
		"failed_audio": [],
		"failed_video": [],
		"trial_type": "preload",
		"trial_index": 74,
		"time_elapsed": 53319,
		"internal_node_id": "0.0-13.0"
	},
	{
		"rt": 1362.1300000231713,
		"stimulus": "<p>In this experiment, two red lines will appear on the screen, one on top and one below. </p><p>Your task is to judge which <strong>red</strong> line is longer as fast as you can without making any errors. </p><p>Don't let yourself be distracted by the black arrows at the ends of the red lines!</p><p>If the <strong>upper horizontal line</strong> is longer, press the <strong>up arrow key</strong> on the keyboard as fast as you can.</p><p>If the <strong>lower horizontal line</strong> is longer, press the <strong>down arrow key</strong> as fast as you can.</p><hr><div style='float: center'><img src='utils/MullerLyer_Demo.png' height='300'></img><p><img src='utils/answer/answer_updown_keyboard.PNG' height='150'></img></p><p class='small'>For example, <strong>press the up arrow key</strong> here.</p></div>",
		"response": 0,
		"trial_type": "html-button-response",
		"trial_index": 75,
		"time_elapsed": 54683,
		"internal_node_id": "0.0-14.0"
	},
	{
		"rt": null,
		"stimulus": "<div style=\"font-size:60px;\">+</div>",
		"response": null,
		"screen": "fixation",
		"trial_type": "html-keyboard-response",
		"trial_index": 76,
		"time_elapsed": 57388,
		"internal_node_id": "0.0-15.0-0.0"
	},
	{
		"rt": 607.9249999020249,
		"stimulus": "stimuli/MullerLyer_str-50.0_diff-0.3.png",
		"response": "arrowup",
		"screen": "test",
		"block": "mullerlyer",
		"correct_response": "arrowdown",
		"trial_type": "image-keyboardmouse-response",
		"trial_index": 77,
		"time_elapsed": 57998,
		"internal_node_id": "0.0-15.0-1.0",
		"prestimulus_duration": 2705,
		"correct": false,
		"block_number": 3,
		"trial_number": 1
	},
	{
		"rt": null,
		"stimulus": "<div style=\"font-size:60px;\">+</div>",
		"response": null,
		"screen": "fixation",
		"trial_type": "html-keyboard-response",
		"trial_index": 78,
		"time_elapsed": 58288,
		"internal_node_id": "0.0-15.0-0.1"
	},
	{
		"rt": 956.6249998752028,
		"stimulus": "stimuli/MullerLyer_str-16.67_diff0.1.png",
		"response": "arrowdown",
		"screen": "test",
		"block": "mullerlyer",
		"correct_response": "arrowup",
		"trial_type": "image-keyboardmouse-response",
		"trial_index": 79,
		"time_elapsed": 59247,
		"internal_node_id": "0.0-15.0-1.1",
		"prestimulus_duration": 290,
		"correct": false,
		"block_number": 3,
		"trial_number": 2
	},
	{
		"rt": null,
		"stimulus": "<div style=\"font-size:60px;\">+</div>",
		"response": null,
		"screen": "fixation",
		"trial_type": "html-keyboard-response",
		"trial_index": 80,
		"time_elapsed": 59721,
		"internal_node_id": "0.0-15.0-0.2"
	},
	{
		"rt": 544.034999795258,
		"stimulus": "stimuli/MullerLyer_str50.0_diff0.1.png",
		"response": "arrowup",
		"screen": "test",
		"block": "mullerlyer",
		"correct_response": "arrowup",
		"trial_type": "image-keyboardmouse-response",
		"trial_index": 81,
		"time_elapsed": 60266,
		"internal_node_id": "0.0-15.0-1.2",
		"prestimulus_duration": 474,
		"correct": true,
		"block_number": 3,
		"trial_number": 3
	},
	{
		"rt": null,
		"stimulus": "<div style=\"font-size:60px;\">+</div>",
		"response": null,
		"screen": "fixation",
		"trial_type": "html-keyboard-response",
		"trial_index": 82,
		"time_elapsed": 60587,
		"internal_node_id": "0.0-15.0-0.3"
	},
	{
		"rt": 1598.3649999834597,
		"stimulus": "stimuli/MullerLyer_str16.67_diff0.3.png",
		"response": "arrowup",
		"screen": "test",
		"block": "mullerlyer",
		"correct_response": "arrowup",
		"trial_type": "image-keyboardmouse-response",
		"trial_index": 83,
		"time_elapsed": 62186,
		"internal_node_id": "0.0-15.0-1.3",
		"prestimulus_duration": 321,
		"correct": true,
		"block_number": 3,
		"trial_number": 4
	},
	{
		"rt": null,
		"stimulus": "<div style=\"font-size:60px;\">+</div>",
		"response": null,
		"screen": "fixation",
		"trial_type": "html-keyboard-response",
		"trial_index": 84,
		"time_elapsed": 62839,
		"internal_node_id": "0.0-15.0-0.4"
	},
	{
		"rt": 317.47999996878207,
		"stimulus": "stimuli/MullerLyer_str-50.0_diff-0.1.png",
		"response": "arrowdown",
		"screen": "test",
		"block": "mullerlyer",
		"correct_response": "arrowdown",
		"trial_type": "image-keyboardmouse-response",
		"trial_index": 85,
		"time_elapsed": 63158,
		"internal_node_id": "0.0-15.0-1.4",
		"prestimulus_duration": 653,
		"correct": true,
		"block_number": 3,
		"trial_number": 5
	},
	{
		"rt": null,
		"stimulus": "<div style=\"font-size:60px;\">+</div>",
		"response": null,
		"screen": "fixation",
		"trial_type": "html-keyboard-response",
		"trial_index": 86,
		"time_elapsed": 63577,
		"internal_node_id": "0.0-15.0-0.5"
	},
	{
		"rt": 471.14999988116324,
		"stimulus": "stimuli/MullerLyer_str-16.67_diff-0.3.png",
		"response": "arrowup",
		"screen": "test",
		"block": "mullerlyer",
		"correct_response": "arrowdown",
		"trial_type": "image-keyboardmouse-response",
		"trial_index": 87,
		"time_elapsed": 64049,
		"internal_node_id": "0.0-15.0-1.5",
		"prestimulus_duration": 419,
		"correct": false,
		"block_number": 3,
		"trial_number": 6
	},
	{
		"rt": null,
		"stimulus": "<div style=\"font-size:60px;\">+</div>",
		"response": null,
		"screen": "fixation",
		"trial_type": "html-keyboard-response",
		"trial_index": 88,
		"time_elapsed": 64431,
		"internal_node_id": "0.0-15.0-0.6"
	},
	{
		"rt": 439.22999990172684,
		"stimulus": "stimuli/MullerLyer_str16.67_diff-0.1.png",
		"response": "arrowdown",
		"screen": "test",
		"block": "mullerlyer",
		"correct_response": "arrowdown",
		"trial_type": "image-keyboardmouse-response",
		"trial_index": 89,
		"time_elapsed": 64872,
		"internal_node_id": "0.0-15.0-1.6",
		"prestimulus_duration": 382,
		"correct": true,
		"block_number": 3,
		"trial_number": 7
	},
	{
		"rt": null,
		"stimulus": "<div style=\"font-size:60px;\">+</div>",
		"response": null,
		"screen": "fixation",
		"trial_type": "html-keyboard-response",
		"trial_index": 90,
		"time_elapsed": 65352,
		"internal_node_id": "0.0-15.0-0.7"
	},
	{
		"rt": 464.3049999140203,
		"stimulus": "stimuli/MullerLyer_str-16.67_diff-0.1.png",
		"response": "arrowup",
		"screen": "test",
		"block": "mullerlyer",
		"correct_response": "arrowdown",
		"trial_type": "image-keyboardmouse-response",
		"trial_index": 91,
		"time_elapsed": 65817,
		"internal_node_id": "0.0-15.0-1.7",
		"prestimulus_duration": 480,
		"correct": false,
		"block_number": 3,
		"trial_number": 8
	},
	{
		"rt": null,
		"stimulus": "<div style=\"font-size:60px;\">+</div>",
		"response": null,
		"screen": "fixation",
		"trial_type": "html-keyboard-response",
		"trial_index": 92,
		"time_elapsed": 66185,
		"internal_node_id": "0.0-15.0-0.8"
	},
	{
		"rt": 511.5450001321733,
		"stimulus": "stimuli/MullerLyer_str50.0_diff-0.3.png",
		"response": "arrowdown",
		"screen": "test",
		"block": "mullerlyer",
		"correct_response": "arrowdown",
		"trial_type": "image-keyboardmouse-response",
		"trial_index": 93,
		"time_elapsed": 66697,
		"internal_node_id": "0.0-15.0-1.8",
		"prestimulus_duration": 368,
		"correct": true,
		"block_number": 3,
		"trial_number": 9
	},
	{
		"rt": null,
		"stimulus": "<div style=\"font-size:60px;\">+</div>",
		"response": null,
		"screen": "fixation",
		"trial_type": "html-keyboard-response",
		"trial_index": 94,
		"time_elapsed": 67323,
		"internal_node_id": "0.0-15.0-0.9"
	},
	{
		"rt": 629.4199998956174,
		"stimulus": "stimuli/MullerLyer_str50.0_diff0.3.png",
		"response": "arrowup",
		"screen": "test",
		"block": "mullerlyer",
		"correct_response": "arrowup",
		"trial_type": "image-keyboardmouse-response",
		"trial_index": 95,
		"time_elapsed": 67953,
		"internal_node_id": "0.0-15.0-1.9",
		"prestimulus_duration": 626,
		"correct": true,
		"block_number": 3,
		"trial_number": 10
	},
	{
		"rt": null,
		"stimulus": "<div style=\"font-size:60px;\">+</div>",
		"response": null,
		"screen": "fixation",
		"trial_type": "html-keyboard-response",
		"trial_index": 96,
		"time_elapsed": 68622,
		"internal_node_id": "0.0-15.0-0.10"
	},
	{
		"rt": 1756.4199999906123,
		"stimulus": "stimuli/MullerLyer_str16.67_diff0.1.png",
		"response": "arrowdown",
		"screen": "test",
		"block": "mullerlyer",
		"correct_response": "arrowup",
		"trial_type": "image-keyboardmouse-response",
		"trial_index": 97,
		"time_elapsed": 70380,
		"internal_node_id": "0.0-15.0-1.10",
		"prestimulus_duration": 669,
		"correct": false,
		"block_number": 3,
		"trial_number": 11
	},
	{
		"rt": null,
		"stimulus": "<div style=\"font-size:60px;\">+</div>",
		"response": null,
		"screen": "fixation",
		"trial_type": "html-keyboard-response",
		"trial_index": 98,
		"time_elapsed": 70833,
		"internal_node_id": "0.0-15.0-0.11"
	},
	{
		"rt": 457.0900001563132,
		"stimulus": "stimuli/MullerLyer_str16.67_diff-0.3.png",
		"response": "arrowup",
		"screen": "test",
		"block": "mullerlyer",
		"correct_response": "arrowdown",
		"trial_type": "image-keyboardmouse-response",
		"trial_index": 99,
		"time_elapsed": 71290,
		"internal_node_id": "0.0-15.0-1.11",
		"prestimulus_duration": 453,
		"correct": false,
		"block_number": 3,
		"trial_number": 12
	},
	{
		"rt": null,
		"stimulus": "<div style=\"font-size:60px;\">+</div>",
		"response": null,
		"screen": "fixation",
		"trial_type": "html-keyboard-response",
		"trial_index": 100,
		"time_elapsed": 71931,
		"internal_node_id": "0.0-15.0-0.12"
	},
	{
		"rt": 541.4850001689047,
		"stimulus": "stimuli/MullerLyer_str-50.0_diff0.3.png",
		"response": "arrowdown",
		"screen": "test",
		"block": "mullerlyer",
		"correct_response": "arrowup",
		"trial_type": "image-keyboardmouse-response",
		"trial_index": 101,
		"time_elapsed": 72474,
		"internal_node_id": "0.0-15.0-1.12",
		"prestimulus_duration": 641,
		"correct": false,
		"block_number": 3,
		"trial_number": 13
	},
	{
		"rt": null,
		"stimulus": "<div style=\"font-size:60px;\">+</div>",
		"response": null,
		"screen": "fixation",
		"trial_type": "html-keyboard-response",
		"trial_index": 102,
		"time_elapsed": 72988,
		"internal_node_id": "0.0-15.0-0.13"
	},
	{
		"rt": 533.1700001843274,
		"stimulus": "stimuli/MullerLyer_str-16.67_diff0.3.png",
		"response": "arrowup",
		"screen": "test",
		"block": "mullerlyer",
		"correct_response": "arrowup",
		"trial_type": "image-keyboardmouse-response",
		"trial_index": 103,
		"time_elapsed": 73522,
		"internal_node_id": "0.0-15.0-1.13",
		"prestimulus_duration": 514,
		"correct": true,
		"block_number": 3,
		"trial_number": 14
	},
	{
		"rt": null,
		"stimulus": "<div style=\"font-size:60px;\">+</div>",
		"response": null,
		"screen": "fixation",
		"trial_type": "html-keyboard-response",
		"trial_index": 104,
		"time_elapsed": 74235,
		"internal_node_id": "0.0-15.0-0.14"
	},
	{
		"rt": 531.0599999502301,
		"stimulus": "stimuli/MullerLyer_str-50.0_diff0.1.png",
		"response": "arrowdown",
		"screen": "test",
		"block": "mullerlyer",
		"correct_response": "arrowup",
		"trial_type": "image-keyboardmouse-response",
		"trial_index": 105,
		"time_elapsed": 74767,
		"internal_node_id": "0.0-15.0-1.14",
		"prestimulus_duration": 713,
		"correct": false,
		"block_number": 3,
		"trial_number": 15
	},
	{
		"rt": null,
		"stimulus": "<div style=\"font-size:60px;\">+</div>",
		"response": null,
		"screen": "fixation",
		"trial_type": "html-keyboard-response",
		"trial_index": 106,
		"time_elapsed": 75130,
		"internal_node_id": "0.0-15.0-0.15"
	},
	{
		"rt": 510.78999997116625,
		"stimulus": "stimuli/MullerLyer_str50.0_diff-0.1.png",
		"response": "arrowup",
		"screen": "test",
		"block": "mullerlyer",
		"correct_response": "arrowdown",
		"trial_type": "image-keyboardmouse-response",
		"trial_index": 107,
		"time_elapsed": 75642,
		"internal_node_id": "0.0-15.0-1.15",
		"prestimulus_duration": 363,
		"correct": false,
		"block_number": 3,
		"trial_number": 16
	},
	{
		"rt": 1639.4050000235438,
		"stimulus": "<p>Your score for this illusion is <p style=\"color: black; font-size: 48px; font-weight: bold;\">3507</p><hr><p style='color:rgb(76,175,80);'>You performed better than <b>0.00</b>% of the population.</p><hr><p>Can you do better in the next illusion?</p>",
		"response": 0,
		"screen": "block_results",
		"trial_type": "html-button-response",
		"trial_index": 108,
		"time_elapsed": 77284,
		"internal_node_id": "0.0-16.0",
		"block": "mullerlyer",
		"block_number": 3,
		"rt_mean": 679.3809374794364,
		"rt_mean_correct": 653.3207142659064,
		"accuracy": 0.4375,
		"inverse_efficiency_score": 1493.3044897506431
	},
	{
		"success": true,
		"timeout": false,
		"failed_images": [],
		"failed_audio": [],
		"failed_video": [],
		"trial_type": "preload",
		"trial_index": 109,
		"time_elapsed": 77285,
		"internal_node_id": "0.0-17.0"
	},
	{
		"rt": 1814.940000185743,
		"stimulus": "<p>In this experiment, two red lines will appear on the screen, one on top and one below. </p><p>Your task is to judge which <strong>red</strong> line is longer as fast as you can without making any errors.</p><p>Don't let yourself be distracted by the black vertical lines on the sides of the red lines!</p>If the <strong>upper horizontal line</strong> is longer, press the <strong>up arrow key</strong> on the keyboard as fast as you can.</p><p>If the <strong>lower horizontal line</strong> is longer, press the <strong>down arrow key</strong> as fast as you can.</p><hr><div style='float: center'><img src='utils/Ponzo_Demo.png' height='300'></img><p><img src='utils/answer/answer_updown_keyboard.PNG' height='150'></img></p><p class='small'>For example, <strong>press the up arrow key</strong> here.</p></div>",
		"response": 0,
		"trial_type": "html-button-response",
		"trial_index": 110,
		"time_elapsed": 79101,
		"internal_node_id": "0.0-18.0"
	},
	{
		"rt": null,
		"stimulus": "<div style=\"font-size:60px;\">+</div>",
		"response": null,
		"screen": "fixation",
		"trial_type": "html-keyboard-response",
		"trial_index": 111,
		"time_elapsed": 81786,
		"internal_node_id": "0.0-19.0-0.0"
	},
	{
		"rt": 502.9050000011921,
		"stimulus": "stimuli/Ponzo_str20.0_diff-0.1.png",
		"response": "arrowup",
		"screen": "test",
		"block": "ponzo",
		"correct_response": "arrowdown",
		"trial_type": "image-keyboardmouse-response",
		"trial_index": 112,
		"time_elapsed": 82290,
		"internal_node_id": "0.0-19.0-1.0",
		"prestimulus_duration": 2685,
		"correct": false,
		"block_number": 4,
		"trial_number": 1
	},
	{
		"rt": null,
		"stimulus": "<div style=\"font-size:60px;\">+</div>",
		"response": null,
		"screen": "fixation",
		"trial_type": "html-keyboard-response",
		"trial_index": 113,
		"time_elapsed": 82596,
		"internal_node_id": "0.0-19.0-0.1"
	},
	{
		"rt": 567.7149998955429,
		"stimulus": "stimuli/Ponzo_str20.0_diff-0.3.png",
		"response": "arrowdown",
		"screen": "test",
		"block": "ponzo",
		"correct_response": "arrowdown",
		"trial_type": "image-keyboardmouse-response",
		"trial_index": 114,
		"time_elapsed": 83165,
		"internal_node_id": "0.0-19.0-1.1",
		"prestimulus_duration": 306,
		"correct": true,
		"block_number": 4,
		"trial_number": 2
	},
	{
		"rt": null,
		"stimulus": "<div style=\"font-size:60px;\">+</div>",
		"response": null,
		"screen": "fixation",
		"trial_type": "html-keyboard-response",
		"trial_index": 115,
		"time_elapsed": 83843,
		"internal_node_id": "0.0-19.0-0.2"
	},
	{
		"rt": 458.82000005804,
		"stimulus": "stimuli/Ponzo_str-6.67_diff0.1.png",
		"response": "arrowup",
		"screen": "test",
		"block": "ponzo",
		"correct_response": "arrowup",
		"trial_type": "image-keyboardmouse-response",
		"trial_index": 116,
		"time_elapsed": 84303,
		"internal_node_id": "0.0-19.0-1.2",
		"prestimulus_duration": 678,
		"correct": true,
		"block_number": 4,
		"trial_number": 3
	},
	{
		"rt": null,
		"stimulus": "<div style=\"font-size:60px;\">+</div>",
		"response": null,
		"screen": "fixation",
		"trial_type": "html-keyboard-response",
		"trial_index": 117,
		"time_elapsed": 84760,
		"internal_node_id": "0.0-19.0-0.3"
	},
	{
		"rt": 538.2099999114871,
		"stimulus": "stimuli/Ponzo_str6.67_diff-0.1.png",
		"response": "arrowup",
		"screen": "test",
		"block": "ponzo",
		"correct_response": "arrowdown",
		"trial_type": "image-keyboardmouse-response",
		"trial_index": 118,
		"time_elapsed": 85298,
		"internal_node_id": "0.0-19.0-1.3",
		"prestimulus_duration": 457,
		"correct": false,
		"block_number": 4,
		"trial_number": 4
	},
	{
		"rt": null,
		"stimulus": "<div style=\"font-size:60px;\">+</div>",
		"response": null,
		"screen": "fixation",
		"trial_type": "html-keyboard-response",
		"trial_index": 119,
		"time_elapsed": 85819,
		"internal_node_id": "0.0-19.0-0.4"
	},
	{
		"rt": 536.7799999658018,
		"stimulus": "stimuli/Ponzo_str20.0_diff0.1.png",
		"response": "arrowup",
		"screen": "test",
		"block": "ponzo",
		"correct_response": "arrowup",
		"trial_type": "image-keyboardmouse-response",
		"trial_index": 120,
		"time_elapsed": 86357,
		"internal_node_id": "0.0-19.0-1.4",
		"prestimulus_duration": 521,
		"correct": true,
		"block_number": 4,
		"trial_number": 5
	},
	{
		"rt": null,
		"stimulus": "<div style=\"font-size:60px;\">+</div>",
		"response": null,
		"screen": "fixation",
		"trial_type": "html-keyboard-response",
		"trial_index": 121,
		"time_elapsed": 86990,
		"internal_node_id": "0.0-19.0-0.5"
	},
	{
		"rt": 478.49999996833503,
		"stimulus": "stimuli/Ponzo_str-20.0_diff-0.3.png",
		"response": "arrowup",
		"screen": "test",
		"block": "ponzo",
		"correct_response": "arrowdown",
		"trial_type": "image-keyboardmouse-response",
		"trial_index": 122,
		"time_elapsed": 87470,
		"internal_node_id": "0.0-19.0-1.5",
		"prestimulus_duration": 633,
		"correct": false,
		"block_number": 4,
		"trial_number": 6
	},
	{
		"rt": null,
		"stimulus": "<div style=\"font-size:60px;\">+</div>",
		"response": null,
		"screen": "fixation",
		"trial_type": "html-keyboard-response",
		"trial_index": 123,
		"time_elapsed": 87865,
		"internal_node_id": "0.0-19.0-0.6"
	},
	{
		"rt": 543.5449997894466,
		"stimulus": "stimuli/Ponzo_str-6.67_diff-0.1.png",
		"response": "arrowdown",
		"screen": "test",
		"block": "ponzo",
		"correct_response": "arrowdown",
		"trial_type": "image-keyboardmouse-response",
		"trial_index": 124,
		"time_elapsed": 88409,
		"internal_node_id": "0.0-19.0-1.6",
		"prestimulus_duration": 395,
		"correct": true,
		"block_number": 4,
		"trial_number": 7
	},
	{
		"rt": null,
		"stimulus": "<div style=\"font-size:60px;\">+</div>",
		"response": null,
		"screen": "fixation",
		"trial_type": "html-keyboard-response",
		"trial_index": 125,
		"time_elapsed": 89004,
		"internal_node_id": "0.0-19.0-0.7"
	},
	{
		"rt": 476.9900001119822,
		"stimulus": "stimuli/Ponzo_str-6.67_diff0.3.png",
		"response": "arrowup",
		"screen": "test",
		"block": "ponzo",
		"correct_response": "arrowup",
		"trial_type": "image-keyboardmouse-response",
		"trial_index": 126,
		"time_elapsed": 89484,
		"internal_node_id": "0.0-19.0-1.7",
		"prestimulus_duration": 595,
		"correct": true,
		"block_number": 4,
		"trial_number": 8
	},
	{
		"rt": null,
		"stimulus": "<div style=\"font-size:60px;\">+</div>",
		"response": null,
		"screen": "fixation",
		"trial_type": "html-keyboard-response",
		"trial_index": 127,
		"time_elapsed": 89952,
		"internal_node_id": "0.0-19.0-0.8"
	},
	{
		"rt": 485.39000004529953,
		"stimulus": "stimuli/Ponzo_str-20.0_diff0.1.png",
		"response": "arrowup",
		"screen": "test",
		"block": "ponzo",
		"correct_response": "arrowup",
		"trial_type": "image-keyboardmouse-response",
		"trial_index": 128,
		"time_elapsed": 90438,
		"internal_node_id": "0.0-19.0-1.8",
		"prestimulus_duration": 468,
		"correct": true,
		"block_number": 4,
		"trial_number": 9
	},
	{
		"rt": null,
		"stimulus": "<div style=\"font-size:60px;\">+</div>",
		"response": null,
		"screen": "fixation",
		"trial_type": "html-keyboard-response",
		"trial_index": 129,
		"time_elapsed": 90785,
		"internal_node_id": "0.0-19.0-0.9"
	},
	{
		"rt": 524.7299999464303,
		"stimulus": "stimuli/Ponzo_str6.67_diff0.3.png",
		"response": "arrowup",
		"screen": "test",
		"block": "ponzo",
		"correct_response": "arrowup",
		"trial_type": "image-keyboardmouse-response",
		"trial_index": 130,
		"time_elapsed": 91312,
		"internal_node_id": "0.0-19.0-1.9",
		"prestimulus_duration": 347,
		"correct": true,
		"block_number": 4,
		"trial_number": 10
	},
	{
		"rt": null,
		"stimulus": "<div style=\"font-size:60px;\">+</div>",
		"response": null,
		"screen": "fixation",
		"trial_type": "html-keyboard-response",
		"trial_index": 131,
		"time_elapsed": 92054,
		"internal_node_id": "0.0-19.0-0.10"
	},
	{
		"rt": 500.5850000306964,
		"stimulus": "stimuli/Ponzo_str20.0_diff0.3.png",
		"response": "arrowup",
		"screen": "test",
		"block": "ponzo",
		"correct_response": "arrowup",
		"trial_type": "image-keyboardmouse-response",
		"trial_index": 132,
		"time_elapsed": 92556,
		"internal_node_id": "0.0-19.0-1.10",
		"prestimulus_duration": 742,
		"correct": true,
		"block_number": 4,
		"trial_number": 11
	},
	{
		"rt": null,
		"stimulus": "<div style=\"font-size:60px;\">+</div>",
		"response": null,
		"screen": "fixation",
		"trial_type": "html-keyboard-response",
		"trial_index": 133,
		"time_elapsed": 93272,
		"internal_node_id": "0.0-19.0-0.11"
	},
	{
		"rt": 344.21500004827976,
		"stimulus": "stimuli/Ponzo_str6.67_diff0.1.png",
		"response": "arrowup",
		"screen": "test",
		"block": "ponzo",
		"correct_response": "arrowup",
		"trial_type": "image-keyboardmouse-response",
		"trial_index": 134,
		"time_elapsed": 93617,
		"internal_node_id": "0.0-19.0-1.11",
		"prestimulus_duration": 716,
		"correct": true,
		"block_number": 4,
		"trial_number": 12
	},
	{
		"rt": null,
		"stimulus": "<div style=\"font-size:60px;\">+</div>",
		"response": null,
		"screen": "fixation",
		"trial_type": "html-keyboard-response",
		"trial_index": 135,
		"time_elapsed": 94167,
		"internal_node_id": "0.0-19.0-0.12"
	},
	{
		"rt": 433.0850001424551,
		"stimulus": "stimuli/Ponzo_str6.67_diff-0.3.png",
		"response": "arrowdown",
		"screen": "test",
		"block": "ponzo",
		"correct_response": "arrowdown",
		"trial_type": "image-keyboardmouse-response",
		"trial_index": 136,
		"time_elapsed": 94601,
		"internal_node_id": "0.0-19.0-1.12",
		"prestimulus_duration": 550,
		"correct": true,
		"block_number": 4,
		"trial_number": 13
	},
	{
		"rt": null,
		"stimulus": "<div style=\"font-size:60px;\">+</div>",
		"response": null,
		"screen": "fixation",
		"trial_type": "html-keyboard-response",
		"trial_index": 137,
		"time_elapsed": 95316,
		"internal_node_id": "0.0-19.0-0.13"
	},
	{
		"rt": 557.689999928698,
		"stimulus": "stimuli/Ponzo_str-6.67_diff-0.3.png",
		"response": "arrowup",
		"screen": "test",
		"block": "ponzo",
		"correct_response": "arrowdown",
		"trial_type": "image-keyboardmouse-response",
		"trial_index": 138,
		"time_elapsed": 95874,
		"internal_node_id": "0.0-19.0-1.13",
		"prestimulus_duration": 715,
		"correct": false,
		"block_number": 4,
		"trial_number": 14
	},
	{
		"rt": null,
		"stimulus": "<div style=\"font-size:60px;\">+</div>",
		"response": null,
		"screen": "fixation",
		"trial_type": "html-keyboard-response",
		"trial_index": 139,
		"time_elapsed": 96420,
		"internal_node_id": "0.0-19.0-0.14"
	},
	{
		"rt": 565.595000050962,
		"stimulus": "stimuli/Ponzo_str-20.0_diff0.3.png",
		"response": "arrowdown",
		"screen": "test",
		"block": "ponzo",
		"correct_response": "arrowup",
		"trial_type": "image-keyboardmouse-response",
		"trial_index": 140,
		"time_elapsed": 96988,
		"internal_node_id": "0.0-19.0-1.14",
		"prestimulus_duration": 546,
		"correct": false,
		"block_number": 4,
		"trial_number": 15
	},
	{
		"rt": null,
		"stimulus": "<div style=\"font-size:60px;\">+</div>",
		"response": null,
		"screen": "fixation",
		"trial_type": "html-keyboard-response",
		"trial_index": 141,
		"time_elapsed": 97375,
		"internal_node_id": "0.0-19.0-0.15"
	},
	{
		"rt": 666.9150001835078,
		"stimulus": "stimuli/Ponzo_str-20.0_diff-0.1.png",
		"response": "arrowup",
		"screen": "test",
		"block": "ponzo",
		"correct_response": "arrowdown",
		"trial_type": "image-keyboardmouse-response",
		"trial_index": 142,
		"time_elapsed": 98043,
		"internal_node_id": "0.0-19.0-1.15",
		"prestimulus_duration": 387,
		"correct": false,
		"block_number": 4,
		"trial_number": 16
	},
	{
		"rt": 1812.7900001127273,
		"stimulus": "<p>Your score for this illusion is <p style=\"color: black; font-size: 48px; font-weight: bold;\">4221</p><hr><p style='color:rgb(76,175,80);'>You performed better than <b>100.00</b>% of the population.</p><hr><p>Can you do better in the next illusion?</p>",
		"response": 0,
		"screen": "block_results",
		"trial_type": "html-button-response",
		"trial_index": 143,
		"time_elapsed": 99858,
		"internal_node_id": "0.0-20.0",
		"block": "ponzo",
		"block_number": 4,
		"rt_mean": 511.3543750048848,
		"rt_mean_correct": 487.18550000339746,
		"accuracy": 0.625,
		"inverse_efficiency_score": 779.496800005436
	},
	{
		"rt": 78590.5999999959,
		"stimulus": "<p><b>Thank you for participating!</b></p><p>Your score for this illusion is <p style=\"color: black; font-size: 48px; font-weight: bold;\">4042</p><hr><p style='color:rgb(76,175,80);'>You performed better than <b>37.93</b>% of the population.</p><hr><p>Challenge your friends to this game!</p>",
		"response": 0,
		"screen": "final_results",
		"trial_type": "html-button-response",
		"trial_index": 144,
		"time_elapsed": 178451,
		"internal_node_id": "0.0-21.0",
		"rt_mean": 637.9960937520082,
		"rt_mean_correct": 598.6976249958389,
		"accuracy": 0.625,
		"inverse_efficiency_score": 957.9161999933422
	}
]