[
	{
		"success": true,
		"trial_type": "fullscreen",
		"trial_index": 0,
		"time_elapsed": 29323,
		"internal_node_id": "0.0-0.0"
	},
	{
		"rt": 1625.925000058487,
		"stimulus": "<p><b>The Illusion Game</b></p><p>By playing this game, you are also contributing to science, as it was designed by psychologists studying illusions. Therefore, please note that some data from your session will be recorded, such as speed and errors. <b>Don't worry though, it's entirely anonymous!</b></p><p>By participating, you agree on letting us use this data to study the psychology of illusions.</p><p><sub>Please contact (dom.makowski@gmail) for any inquiries.</sub></p>",
		"response": 0,
		"screen": "session_info",
		"participant_id": "20210308_142550_lnrzr",
		"experiment_version": "0.0.1",
		"datetime": "08/03/2021 14:25:50",
		"date": "20210308",
		"time": "142550",
		"date_timezone": 8,
		"window_width": 1536,
		"window_height": 722,
		"window_resolution": "1536x722",
		"screen_width": 1536,
		"screen_height": 864,
		"screen_resolution": "1536x864",
		"screen_colordepth": 24,
		"screen_pixeldepth": 24,
		"screen_touchscreen": false,
		"browser_name": "Netscape",
		"browser_codename": "Mozilla",
		"browser_engine": "Gecko",
		"browser_version": "5.0 (Windows NT 10.0; Win64; x64) AppleWebKit/537.36 (KHTML, like Gecko) Chrome/88.0.4324.190 Safari/537.36",
		"browser": "Mozilla/5.0 (Windows NT 10.0; Win64; x64) AppleWebKit/537.36 (KHTML, like Gecko) Chrome/88.0.4324.190 Safari/537.36",
		"system_platform": "Win32",
		"system_language": "en-US",
		"trial_type": "html-button-response",
		"trial_index": 1,
		"time_elapsed": 30954,
		"internal_node_id": "0.0-1.0"
	},
	{
		"rt": 12482.139999978244,
		"response": {
			"Age": "20/04/1996",
			"Initials": "ZJ"
		},
		"screen": "participant_info_general",
		"trial_type": "survey-text",
		"trial_index": 2,
		"time_elapsed": 43441,
		"internal_node_id": "0.0-2.0"
	},
	{
		"rt": 1975.6599999964237,
		"response": {
			"Q0": "No, what do I need to do?"
		},
		"question_order": [
			0
		],
		"screen": "participant_info_repetition",
		"trial_type": "survey-multi-choice",
		"trial_index": 3,
		"time_elapsed": 45418,
		"internal_node_id": "0.0-3.0"
	},
	{
		"rt": 2002.5799999712035,
		"stimulus": "<p><b>The Illusion Game</b></p><p>In this game, you will see several visual illusions.</p><p>Visual illusions are visually perceived images that are deceptive or misleading because of their context. </p><p>For example, one circle may appear large than another because of its surrounding context. </p><p>In each block of illusions, you will have to make judgements of <b>size/length/colour contrast</b>.</p><p>Your goal is to be as <b>accurate</b> and as <b>fast</b> as possible!</p>",
		"response": 0,
		"screen": "participant_info_newsubject",
		"trial_type": "html-button-response",
		"trial_index": 4,
		"time_elapsed": 47424,
		"internal_node_id": "0.0-4.0-0.0"
	},
	{
		"success": true,
		"timeout": false,
		"failed_images": [],
		"failed_audio": [],
		"failed_video": [],
		"trial_type": "preload",
		"trial_index": 5,
		"time_elapsed": 47426,
		"internal_node_id": "0.0-5.0"
	},
	{
		"rt": 5977.720000082627,
		"stimulus": "<p>In this experiment, two red circles will appear on the screen.</p><p>Your task is to judge which circle is bigger in size. </p><p>If the <strong>left circle</strong> is bigger, press the <strong>left arrow key</strong> on the keyboard as fast as you can.</p><p>If the <strong>right circle</strong> is bigger, press the <strong>right arrow key</strong> as fast as you can.</p><hr><div style='float: center'><img src='utils/Delboeuf_Demo.png' height='300'></img><p><img src='utils/answer/answer_leftright_keyboard.PNG' height='150'></img></p><p class='small'>For example, <strong>press the left arrow key</strong> here.</p></div>",
		"response": 0,
		"trial_type": "html-button-response",
		"trial_index": 6,
		"time_elapsed": 53405,
		"internal_node_id": "0.0-6.0"
	},
	{
		"rt": null,
		"stimulus": "<div style=\"font-size:60px;\">+</div>",
		"response": null,
		"screen": "fixation",
		"trial_type": "html-keyboard-response",
		"trial_index": 7,
		"time_elapsed": 56032,
		"internal_node_id": "0.0-7.0-0.0"
	},
	{
		"rt": 680.7000000262633,
		"stimulus": "stimuli/Delboeuf_str-0.33_diff-0.33.png",
		"response": "arrowright",
		"screen": "test",
		"block": "delboeuf",
		"correct_response": "arrowright",
		"trial_type": "image-keyboardmouse-response",
		"trial_index": 8,
		"time_elapsed": 56717,
		"internal_node_id": "0.0-7.0-1.0",
		"prestimulus_duration": 2627,
		"correct": true,
		"block_number": 1,
		"trial_number": 1
	},
	{
		"rt": null,
		"stimulus": "<div style=\"font-size:60px;\">+</div>",
		"response": null,
		"screen": "fixation",
		"trial_type": "html-keyboard-response",
		"trial_index": 9,
		"time_elapsed": 57204,
		"internal_node_id": "0.0-7.0-0.1"
	},
	{
		"rt": 1032.839999999851,
		"stimulus": "stimuli/Delboeuf_str0.33_diff0.33.png",
		"response": "arrowleft",
		"screen": "test",
		"block": "delboeuf",
		"correct_response": "arrowleft",
		"trial_type": "image-keyboardmouse-response",
		"trial_index": 10,
		"time_elapsed": 58238,
		"internal_node_id": "0.0-7.0-1.1",
		"prestimulus_duration": 487,
		"correct": true,
		"block_number": 1,
		"trial_number": 2
	},
	{
		"rt": null,
		"stimulus": "<div style=\"font-size:60px;\">+</div>",
		"response": null,
		"screen": "fixation",
		"trial_type": "html-keyboard-response",
		"trial_index": 11,
		"time_elapsed": 58958,
		"internal_node_id": "0.0-7.0-0.2"
	},
	{
		"rt": 988.1700000260025,
		"stimulus": "stimuli/Delboeuf_str-0.33_diff0.33.png",
		"response": "arrowleft",
		"screen": "test",
		"block": "delboeuf",
		"correct_response": "arrowleft",
		"trial_type": "image-keyboardmouse-response",
		"trial_index": 12,
		"time_elapsed": 59947,
		"internal_node_id": "0.0-7.0-1.2",
		"prestimulus_duration": 720,
		"correct": true,
		"block_number": 1,
		"trial_number": 3
	},
	{
		"rt": null,
		"stimulus": "<div style=\"font-size:60px;\">+</div>",
		"response": null,
		"screen": "fixation",
		"trial_type": "html-keyboard-response",
		"trial_index": 13,
		"time_elapsed": 60392,
		"internal_node_id": "0.0-7.0-0.3"
	},
	{
		"rt": 957.784999976866,
		"stimulus": "stimuli/Delboeuf_str0.33_diff-0.33.png",
		"response": "arrowright",
		"screen": "test",
		"block": "delboeuf",
		"correct_response": "arrowright",
		"trial_type": "image-keyboardmouse-response",
		"trial_index": 14,
		"time_elapsed": 61351,
		"internal_node_id": "0.0-7.0-1.3",
		"prestimulus_duration": 445,
		"correct": true,
		"block_number": 1,
		"trial_number": 4
	},
	{
		"rt": 7253.865000093356,
		"stimulus": "<p>Here are your results:</p><hr><p style='color:rgb(233,30,99);'>You performed better than <b>0.00</b>% of the population.</p><hr><p>Can you do better in the next illusion?</p>",
		"response": 0,
		"screen": "block_results",
		"trial_type": "html-button-response",
		"trial_index": 15,
		"time_elapsed": 68607,
		"internal_node_id": "0.0-8.0",
		"block": "delboeuf",
		"block_number": 1,
		"rt_mean": 914.8737500072457,
		"rt_mean_correct": 914.8737500072457,
		"accuracy": 1,
		"inverse_efficiency_score": 914.8737500072457
	},
	{
		"success": true,
		"timeout": false,
		"failed_images": [],
		"failed_audio": [],
		"failed_video": [],
		"trial_type": "preload",
		"trial_index": 16,
		"time_elapsed": 68608,
		"internal_node_id": "0.0-9.0"
	},
	{
		"rt": 5550.129999988712,
		"stimulus": "<p>In this experiment, two red circles will appear on the screen.</p><p>Your task is to judge which circle is bigger in size. </p><p>If the <strong>left circle</strong> is bigger, press the <strong>left arrow key</strong> on the keyboard as fast as you can.</p><p>If the <strong>right circle</strong> is bigger, press the <strong>right arrow key</strong> as fast as you can.</p><hr><div style='float: center'><img src='utils/Ebbinghaus_Demo.png' height='300'></img><p><img src='utils/answer/answer_leftright_keyboard.PNG' height='150'></img></p><p class='small'>For example, <strong>press the left arrow key</strong> here.</p></div>",
		"response": 0,
		"trial_type": "html-button-response",
		"trial_index": 17,
		"time_elapsed": 74159,
		"internal_node_id": "0.0-10.0"
	},
	{
		"rt": null,
		"stimulus": "<div style=\"font-size:60px;\">+</div>",
		"response": null,
		"screen": "fixation",
		"trial_type": "html-keyboard-response",
		"trial_index": 18,
		"time_elapsed": 76613,
		"internal_node_id": "0.0-11.0-0.0"
	},
	{
		"rt": 1062.4349999707192,
		"stimulus": "stimuli/Ebbinghaus_str0.33_diff-0.33.png",
		"response": "arrowright",
		"screen": "test",
		"block": "ebbinghaus",
		"correct_response": "arrowright",
		"trial_type": "image-keyboardmouse-response",
		"trial_index": 19,
		"time_elapsed": 77678,
		"internal_node_id": "0.0-11.0-1.0",
		"prestimulus_duration": 2454,
		"correct": true,
		"block_number": 2,
		"trial_number": 1
	},
	{
		"rt": null,
		"stimulus": "<div style=\"font-size:60px;\">+</div>",
		"response": null,
		"screen": "fixation",
		"trial_type": "html-keyboard-response",
		"trial_index": 20,
		"time_elapsed": 78235,
		"internal_node_id": "0.0-11.0-0.1"
	},
	{
		"rt": 712.8100000554696,
		"stimulus": "stimuli/Ebbinghaus_str0.33_diff0.33.png",
		"response": "arrowleft",
		"screen": "test",
		"block": "ebbinghaus",
		"correct_response": "arrowleft",
		"trial_type": "image-keyboardmouse-response",
		"trial_index": 21,
		"time_elapsed": 78950,
		"internal_node_id": "0.0-11.0-1.1",
		"prestimulus_duration": 557,
		"correct": true,
		"block_number": 2,
		"trial_number": 2
	},
	{
		"rt": null,
		"stimulus": "<div style=\"font-size:60px;\">+</div>",
		"response": null,
		"screen": "fixation",
		"trial_type": "html-keyboard-response",
		"trial_index": 22,
		"time_elapsed": 79233,
		"internal_node_id": "0.0-11.0-0.2"
	},
	{
		"rt": 749.2499999934807,
		"stimulus": "stimuli/Ebbinghaus_str-0.33_diff0.33.png",
		"response": "arrowleft",
		"screen": "test",
		"block": "ebbinghaus",
		"correct_response": "arrowleft",
		"trial_type": "image-keyboardmouse-response",
		"trial_index": 23,
		"time_elapsed": 79983,
		"internal_node_id": "0.0-11.0-1.2",
		"prestimulus_duration": 283,
		"correct": true,
		"block_number": 2,
		"trial_number": 3
	},
	{
		"rt": null,
		"stimulus": "<div style=\"font-size:60px;\">+</div>",
		"response": null,
		"screen": "fixation",
		"trial_type": "html-keyboard-response",
		"trial_index": 24,
		"time_elapsed": 80392,
		"internal_node_id": "0.0-11.0-0.3"
	},
	{
		"rt": 1018.889999948442,
		"stimulus": "stimuli/Ebbinghaus_str-0.33_diff-0.33.png",
		"response": "arrowright",
		"screen": "test",
		"block": "ebbinghaus",
		"correct_response": "arrowright",
		"trial_type": "image-keyboardmouse-response",
		"trial_index": 25,
		"time_elapsed": 81412,
		"internal_node_id": "0.0-11.0-1.3",
		"prestimulus_duration": 409,
		"correct": true,
		"block_number": 2,
		"trial_number": 4
	},
	{
		"rt": 3822.34499999322,
		"stimulus": "<p>Here are your results:</p><hr><p style='color:rgb(233,30,99);'>You performed better than <b>0.00</b>% of the population.</p><hr><p>Can you do better in the next illusion?</p>",
		"response": 0,
		"screen": "block_results",
		"trial_type": "html-button-response",
		"trial_index": 26,
		"time_elapsed": 85239,
		"internal_node_id": "0.0-12.0",
		"block": "ebbinghaus",
		"block_number": 2,
		"rt_mean": 885.8462499920279,
		"rt_mean_correct": 885.8462499920279,
		"accuracy": 1,
		"inverse_efficiency_score": 885.8462499920279
	},
	{
		"rt": 2086.1949999816716,
		"stimulus": "<p><b>Thank you for participating!</b> Here are your results:</p><hr><p style='color:rgb(233,30,99);'>You performed better than <b>0.00</b>% of the population.</p><hr><p> Don't hesitate to spread the word and share this experiment, science appreciates :)</p>",
		"response": 0,
		"screen": "final_results",
		"trial_type": "html-button-response",
		"trial_index": 27,
		"time_elapsed": 87327,
		"internal_node_id": "0.0-13.0",
		"rt_mean": 900.3599999996368,
		"rt_mean_correct": 900.3599999996368,
		"accuracy": 1,
		"inverse_efficiency_score": 900.3599999996368
	}
]