[{"success":true,"trial_type":"fullscreen","trial_index":0,"time_elapsed":1143,"internal_node_id":"0.0-0.0","screen_height":944,"screen_width":2048,"browser":"chrome","browser_version":"103.0.0","mobile":false,"os":"Windows 10","vsync_rate":60.12,"participant_id":"S01"},{"width":2048,"height":944,"webaudio":true,"browser":"chrome","browser_version":"103.0.0","mobile":false,"os":"Windows 10","fullscreen":true,"vsync_rate":60.12,"webcam":true,"microphone":true,"screen":"browser_info","trial_type":"browser-check","trial_index":1,"time_elapsed":2151,"internal_node_id":"0.0-1.0","screen_height":944,"screen_width":2048,"participant_id":"S01"},{"rt":2634,"response":{"Participant_ID":"S01"},"screen":"participant_info","version":"1.0","date":"12/07/2022","time":"12:08:09","trial_type":"survey-text","trial_index":2,"time_elapsed":4787,"internal_node_id":"0.0-2.0","screen_height":944,"screen_width":2048,"browser":"chrome","browser_version":"103.0.0","mobile":false,"os":"Windows 10","vsync_rate":60.12,"participant_id":"S01"},{"rt":2122,"stimulus":"<p><b>The Illusion Game</b></p><p>In this reaction-time game, you will need to be <b>as fast as possible</b> and make correct responses by resisting different visual illusions.</p><p>We will show you examples of each illusion before each block.</p><p>Remember, your goal is to be as <b>fast</b> and <b>accurate</b> as possible. Good luck!</p>","response":0,"screen":"general_instructions","trial_type":"html-button-response","trial_index":3,"time_elapsed":6910,"internal_node_id":"0.0-3.0","screen_height":944,"screen_width":2048,"browser":"chrome","browser_version":"103.0.0","mobile":false,"os":"Windows 10","vsync_rate":60.12,"participant_id":"S01"},{"success":true,"timeout":false,"failed_images":[],"failed_audio":[],"failed_video":[],"trial_type":"preload","trial_index":4,"time_elapsed":6911,"internal_node_id":"0.0-4.0-0.0","screen_height":944,"screen_width":2048,"browser":"chrome","browser_version":"103.0.0","mobile":false,"os":"Windows 10","vsync_rate":60.12,"participant_id":"S01"},{"rt":4734,"stimulus":"<p><b>Part 1</b></p><p>In this part, two horizontal red lines will appear one above the other.</p><p>Your task is to select which <b>line is longer</b> in size as fast as you can, without making errors.</p><p>Don't get distracted by the surrounding black lines!</p><p>Press <b>the UP or the DOWN arrow</b> to indicate where is the longest <b>red line.</b></p><div style='float: center'><img src='utils/stimuli_demo/Ponzo_Demo.png' height='300'></img><p><img src='utils/answer/answer_updown_keyboard.PNG' height='150'></img></p><p class='small'>In this example, the correct answer is the <b>UP arrow</b>.</p></div><p>Are you ready? <b>Press ENTER to start</b></p>","response":"enter","trial_type":"html-keyboard-response","trial_index":5,"time_elapsed":11646,"internal_node_id":"0.0-4.0-1.0","screen_height":944,"screen_width":2048,"browser":"chrome","browser_version":"103.0.0","mobile":false,"os":"Windows 10","vsync_rate":60.12,"participant_id":"S01"},{"rt":null,"stimulus":"<div style=\"font-size:60px;\">+</div>","response":null,"screen":"fixation","trial_type":"html-keyboard-response","trial_index":6,"time_elapsed":12158,"internal_node_id":"0.0-4.0-2.0-0.0","screen_height":944,"screen_width":2048,"browser":"chrome","browser_version":"103.0.0","mobile":false,"os":"Windows 10","vsync_rate":60.12,"participant_id":"S01","trial_duration":0},{"rt":925,"stimulus":"stimuli/Ponzo_str-20.0_diff0.3.png","response":"arrowup","screen":"Trial","block":"Ponzo","correct_response":"arrowup","trial_type":"image-keyboard-response","trial_index":7,"time_elapsed":13084,"internal_node_id":"0.0-4.0-2.0-1.0","screen_height":944,"screen_width":2048,"browser":"chrome","browser_version":"103.0.0","mobile":false,"os":"Windows 10","vsync_rate":60.12,"participant_id":"S01","prestimulus_duration":512,"correct":true,"type":"Ponzo","illusion_strength":-20,"illusion_difference":0.3,"block_number":1,"trial_number":1},{"rt":null,"stimulus":"<div style=\"font-size:60px;\">+</div>","response":null,"screen":"fixation","trial_type":"html-keyboard-response","trial_index":8,"time_elapsed":13086,"internal_node_id":"0.0-4.0-2.0-0.1","screen_height":944,"screen_width":2048,"browser":"chrome","browser_version":"103.0.0","mobile":false,"os":"Windows 10","vsync_rate":60.12,"participant_id":"S01","trial_duration":0},{"rt":627,"stimulus":"stimuli/Ponzo_str-20.0_diff-0.3.png","response":"arrowdown","screen":"Trial","block":"Ponzo","correct_response":"arrowdown","trial_type":"image-keyboard-response","trial_index":9,"time_elapsed":13714,"internal_node_id":"0.0-4.0-2.0-1.1","screen_height":944,"screen_width":2048,"browser":"chrome","browser_version":"103.0.0","mobile":false,"os":"Windows 10","vsync_rate":60.12,"participant_id":"S01","prestimulus_duration":2,"correct":true,"type":"Ponzo","illusion_strength":-20,"illusion_difference":-0.3,"block_number":1,"trial_number":2},{"rt":null,"stimulus":"<div style=\"font-size:60px;\">+</div>","response":null,"screen":"fixation","trial_type":"html-keyboard-response","trial_index":10,"time_elapsed":13715,"internal_node_id":"0.0-4.0-2.0-0.2","screen_height":944,"screen_width":2048,"browser":"chrome","browser_version":"103.0.0","mobile":false,"os":"Windows 10","vsync_rate":60.12,"participant_id":"S01","trial_duration":0},{"rt":583,"stimulus":"stimuli/Ponzo_str20.0_diff0.3.png","response":"arrowup","screen":"Trial","block":"Ponzo","correct_response":"arrowup","trial_type":"image-keyboard-response","trial_index":11,"time_elapsed":14299,"internal_node_id":"0.0-4.0-2.0-1.2","screen_height":944,"screen_width":2048,"browser":"chrome","browser_version":"103.0.0","mobile":false,"os":"Windows 10","vsync_rate":60.12,"participant_id":"S01","prestimulus_duration":1,"correct":true,"type":"Ponzo","illusion_strength":20,"illusion_difference":0.3,"block_number":1,"trial_number":3},{"rt":null,"stimulus":"<div style=\"font-size:60px;\">+</div>","response":null,"screen":"fixation","trial_type":"html-keyboard-response","trial_index":12,"time_elapsed":14301,"internal_node_id":"0.0-4.0-2.0-0.3","screen_height":944,"screen_width":2048,"browser":"chrome","browser_version":"103.0.0","mobile":false,"os":"Windows 10","vsync_rate":60.12,"participant_id":"S01","trial_duration":0},{"rt":386,"stimulus":"stimuli/Ponzo_str20.0_diff-0.3.png","response":"arrowdown","screen":"Trial","block":"Ponzo","correct_response":"arrowdown","trial_type":"image-keyboard-response","trial_index":13,"time_elapsed":14688,"internal_node_id":"0.0-4.0-2.0-1.3","screen_height":944,"screen_width":2048,"browser":"chrome","browser_version":"103.0.0","mobile":false,"os":"Windows 10","vsync_rate":60.12,"participant_id":"S01","prestimulus_duration":2,"correct":true,"type":"Ponzo","illusion_strength":20,"illusion_difference":-0.3,"block_number":1,"trial_number":4},{"rt":1584,"stimulus":"<p>Your score for this illusion is <p style=\"color: black; font-size: 48px; font-weight: bold;\">4370</p><hr><p style='color:rgb(76,175,80);'>You performed better than <b>71.20</b>% of the population.</p><hr><p>Can you do better in the next illusion?</p>","response":0,"screen":"block_results","trial_type":"html-button-response","trial_index":14,"time_elapsed":16273,"internal_node_id":"0.0-4.0-3.0","screen_height":944,"screen_width":2048,"browser":"chrome","browser_version":"103.0.0","mobile":false,"os":"Windows 10","vsync_rate":60.12,"participant_id":"S01"},{"success":true,"timeout":false,"failed_images":[],"failed_audio":[],"failed_video":[],"trial_type":"preload","trial_index":15,"time_elapsed":16274,"internal_node_id":"0.0-5.0-0.0","screen_height":944,"screen_width":2048,"browser":"chrome","browser_version":"103.0.0","mobile":false,"os":"Windows 10","vsync_rate":60.12,"participant_id":"S01"},{"rt":1416,"stimulus":"<p><b>Part 2</b></p><p>In this part, two red circles will appear side by side on the screen.</p><p>Your task is to select which <b>red circle is bigger</b> in size as fast as you can, without making errors.</p><p>Don't get distracted by the surrounding black circles around the red circles!</p><p>Press <b>the LEFT or the RIGHT arrow</b> to indicate where is the biggest <b>red circle.</b></p><div style='float: center'><img src='utils/stimuli_demo/Ebbinghaus_Demo.png' height='300'></img><p><img src='utils/answer/answer_leftright_keyboard.PNG' height='150'></img></p><p class='small'>In this example, the correct answer is the <b>LEFT arrow</b>.</p></div><p>Are you ready? <b>Press ENTER to start</b></p>","response":"enter","trial_type":"html-keyboard-response","trial_index":16,"time_elapsed":17691,"internal_node_id":"0.0-5.0-1.0","screen_height":944,"screen_width":2048,"browser":"chrome","browser_version":"103.0.0","mobile":false,"os":"Windows 10","vsync_rate":60.12,"participant_id":"S01"},{"rt":null,"stimulus":"<div style=\"font-size:60px;\">+</div>","response":null,"screen":"fixation","trial_type":"html-keyboard-response","trial_index":17,"time_elapsed":18206,"internal_node_id":"0.0-5.0-2.0-0.0","screen_height":944,"screen_width":2048,"browser":"chrome","browser_version":"103.0.0","mobile":false,"os":"Windows 10","vsync_rate":60.12,"participant_id":"S01","trial_duration":0},{"rt":484,"stimulus":"stimuli/Ebbinghaus_str-1.0_diff1.0.png","response":"arrowright","screen":"Trial","block":"Ebbinghaus","correct_response":"arrowleft","trial_type":"image-keyboard-response","trial_index":18,"time_elapsed":18691,"internal_node_id":"0.0-5.0-2.0-1.0","screen_height":944,"screen_width":2048,"browser":"chrome","browser_version":"103.0.0","mobile":false,"os":"Windows 10","vsync_rate":60.12,"participant_id":"S01","prestimulus_duration":515,"correct":false,"type":"Ebbinghaus","illusion_strength":-1,"illusion_difference":1,"block_number":2,"trial_number":1},{"rt":null,"stimulus":"<div style=\"font-size:60px;\">+</div>","response":null,"screen":"fixation","trial_type":"html-keyboard-response","trial_index":19,"time_elapsed":18693,"internal_node_id":"0.0-5.0-2.0-0.1","screen_height":944,"screen_width":2048,"browser":"chrome","browser_version":"103.0.0","mobile":false,"os":"Windows 10","vsync_rate":60.12,"participant_id":"S01","trial_duration":0},{"rt":232,"stimulus":"stimuli/Ebbinghaus_str1.0_diff1.0.png","response":"arrowleft","screen":"Trial","block":"Ebbinghaus","correct_response":"arrowleft","trial_type":"image-keyboard-response","trial_index":20,"time_elapsed":18926,"internal_node_id":"0.0-5.0-2.0-1.1","screen_height":944,"screen_width":2048,"browser":"chrome","browser_version":"103.0.0","mobile":false,"os":"Windows 10","vsync_rate":60.12,"participant_id":"S01","prestimulus_duration":2,"correct":true,"type":"Ebbinghaus","illusion_strength":1,"illusion_difference":1,"block_number":2,"trial_number":2},{"rt":null,"stimulus":"<div style=\"font-size:60px;\">+</div>","response":null,"screen":"fixation","trial_type":"html-keyboard-response","trial_index":21,"time_elapsed":18928,"internal_node_id":"0.0-5.0-2.0-0.2","screen_height":944,"screen_width":2048,"browser":"chrome","browser_version":"103.0.0","mobile":false,"os":"Windows 10","vsync_rate":60.12,"participant_id":"S01","trial_duration":0},{"rt":500,"stimulus":"stimuli/Ebbinghaus_str-1.0_diff-1.0.png","response":"arrowright","screen":"Trial","block":"Ebbinghaus","correct_response":"arrowright","trial_type":"image-keyboard-response","trial_index":22,"time_elapsed":19429,"internal_node_id":"0.0-5.0-2.0-1.2","screen_height":944,"screen_width":2048,"browser":"chrome","browser_version":"103.0.0","mobile":false,"os":"Windows 10","vsync_rate":60.12,"participant_id":"S01","prestimulus_duration":2,"correct":true,"type":"Ebbinghaus","illusion_strength":-1,"illusion_difference":-1,"block_number":2,"trial_number":3},{"rt":null,"stimulus":"<div style=\"font-size:60px;\">+</div>","response":null,"screen":"fixation","trial_type":"html-keyboard-response","trial_index":23,"time_elapsed":19431,"internal_node_id":"0.0-5.0-2.0-0.3","screen_height":944,"screen_width":2048,"browser":"chrome","browser_version":"103.0.0","mobile":false,"os":"Windows 10","vsync_rate":60.12,"participant_id":"S01","trial_duration":0},{"rt":217,"stimulus":"stimuli/Ebbinghaus_str1.0_diff-1.0.png","response":"arrowright","screen":"Trial","block":"Ebbinghaus","correct_response":"arrowright","trial_type":"image-keyboard-response","trial_index":24,"time_elapsed":19649,"internal_node_id":"0.0-5.0-2.0-1.3","screen_height":944,"screen_width":2048,"browser":"chrome","browser_version":"103.0.0","mobile":false,"os":"Windows 10","vsync_rate":60.12,"participant_id":"S01","prestimulus_duration":2,"correct":true,"type":"Ebbinghaus","illusion_strength":1,"illusion_difference":-1,"block_number":2,"trial_number":4},{"rt":623,"stimulus":"<p>Your score for this illusion is <p style=\"color: black; font-size: 48px; font-weight: bold;\">4578</p><hr><p style='color:rgb(76,175,80);'>You performed better than <b>77.95</b>% of the population.</p><hr><p>Can you do better in the next illusion?</p>","response":0,"screen":"block_results","trial_type":"html-button-response","trial_index":25,"time_elapsed":20273,"internal_node_id":"0.0-5.0-3.0","screen_height":944,"screen_width":2048,"browser":"chrome","browser_version":"103.0.0","mobile":false,"os":"Windows 10","vsync_rate":60.12,"participant_id":"S01"},{"success":true,"timeout":false,"failed_images":[],"failed_audio":[],"failed_video":[],"trial_type":"preload","trial_index":26,"time_elapsed":20273,"internal_node_id":"0.0-6.0-0.0","screen_height":944,"screen_width":2048,"browser":"chrome","browser_version":"103.0.0","mobile":false,"os":"Windows 10","vsync_rate":60.12,"participant_id":"S01"},{"rt":2467,"stimulus":"<p><b>Part 3</b></p><p>In this part, two horizontal red lines will appear one above the other.</p><p>Your task is to select <b>the direction</b> towards which the red lines are pointing, as fast as you can, and without making errors.</p><p>Don't get distracted by the black lines!</p><p>Press <b>the LEFT or the RIGHT arrow</b> to indicate the <b>direction where the red lines are pointing.</b></p><div style='float: center'><img src='utils/stimuli_demo/Zollner_Demo.png' height='300'></img><p><img src='utils/answer/answer_leftright_keyboard.PNG' height='150'></img></p><p class='small'>In this example, the correct answer is the <b>LEFT arrow</b>.</p></div><p>Are you ready? <b>Press ENTER to start</b></p>","response":"enter","trial_type":"html-keyboard-response","trial_index":27,"time_elapsed":22741,"internal_node_id":"0.0-6.0-1.0","screen_height":944,"screen_width":2048,"browser":"chrome","browser_version":"103.0.0","mobile":false,"os":"Windows 10","vsync_rate":60.12,"participant_id":"S01"},{"rt":null,"stimulus":"<div style=\"font-size:60px;\">+</div>","response":null,"screen":"fixation","trial_type":"html-keyboard-response","trial_index":28,"time_elapsed":23248,"internal_node_id":"0.0-6.0-2.0-0.0","screen_height":944,"screen_width":2048,"browser":"chrome","browser_version":"103.0.0","mobile":false,"os":"Windows 10","vsync_rate":60.12,"participant_id":"S01","trial_duration":0},{"rt":196,"stimulus":"stimuli/Zollner_str-70.0_diff-7.0.png","response":"arrowleft","screen":"Trial","block":"Zollner","correct_response":"arrowleft","trial_type":"image-keyboard-response","trial_index":29,"time_elapsed":23444,"internal_node_id":"0.0-6.0-2.0-1.0","screen_height":944,"screen_width":2048,"browser":"chrome","browser_version":"103.0.0","mobile":false,"os":"Windows 10","vsync_rate":60.12,"participant_id":"S01","prestimulus_duration":507,"correct":true,"type":"Zollner","illusion_strength":-70,"illusion_difference":-7,"block_number":3,"trial_number":1},{"rt":null,"stimulus":"<div style=\"font-size:60px;\">+</div>","response":null,"screen":"fixation","trial_type":"html-keyboard-response","trial_index":30,"time_elapsed":23446,"internal_node_id":"0.0-6.0-2.0-0.1","screen_height":944,"screen_width":2048,"browser":"chrome","browser_version":"103.0.0","mobile":false,"os":"Windows 10","vsync_rate":60.12,"participant_id":"S01","trial_duration":0},{"rt":191,"stimulus":"stimuli/Zollner_str70.0_diff-7.0.png","response":"arrowleft","screen":"Trial","block":"Zollner","correct_response":"arrowleft","trial_type":"image-keyboard-response","trial_index":31,"time_elapsed":23638,"internal_node_id":"0.0-6.0-2.0-1.1","screen_height":944,"screen_width":2048,"browser":"chrome","browser_version":"103.0.0","mobile":false,"os":"Windows 10","vsync_rate":60.12,"participant_id":"S01","prestimulus_duration":2,"correct":true,"type":"Zollner","illusion_strength":70,"illusion_difference":-7,"block_number":3,"trial_number":2},{"rt":null,"stimulus":"<div style=\"font-size:60px;\">+</div>","response":null,"screen":"fixation","trial_type":"html-keyboard-response","trial_index":32,"time_elapsed":23640,"internal_node_id":"0.0-6.0-2.0-0.2","screen_height":944,"screen_width":2048,"browser":"chrome","browser_version":"103.0.0","mobile":false,"os":"Windows 10","vsync_rate":60.12,"participant_id":"S01","trial_duration":0},{"rt":175,"stimulus":"stimuli/Zollner_str-70.0_diff7.0.png","response":"arrowleft","screen":"Trial","block":"Zollner","correct_response":"arrowright","trial_type":"image-keyboard-response","trial_index":33,"time_elapsed":23816,"internal_node_id":"0.0-6.0-2.0-1.2","screen_height":944,"screen_width":2048,"browser":"chrome","browser_version":"103.0.0","mobile":false,"os":"Windows 10","vsync_rate":60.12,"participant_id":"S01","prestimulus_duration":2,"correct":false,"type":"Zollner","illusion_strength":-70,"illusion_difference":7,"block_number":3,"trial_number":3},{"rt":null,"stimulus":"<div style=\"font-size:60px;\">+</div>","response":null,"screen":"fixation","trial_type":"html-keyboard-response","trial_index":34,"time_elapsed":23818,"internal_node_id":"0.0-6.0-2.0-0.3","screen_height":944,"screen_width":2048,"browser":"chrome","browser_version":"103.0.0","mobile":false,"os":"Windows 10","vsync_rate":60.12,"participant_id":"S01","trial_duration":0},{"rt":174,"stimulus":"stimuli/Zollner_str70.0_diff7.0.png","response":"arrowleft","screen":"Trial","block":"Zollner","correct_response":"arrowright","trial_type":"image-keyboard-response","trial_index":35,"time_elapsed":23993,"internal_node_id":"0.0-6.0-2.0-1.3","screen_height":944,"screen_width":2048,"browser":"chrome","browser_version":"103.0.0","mobile":false,"os":"Windows 10","vsync_rate":60.12,"participant_id":"S01","prestimulus_duration":2,"correct":false,"type":"Zollner","illusion_strength":70,"illusion_difference":7,"block_number":3,"trial_number":4},{"rt":706,"stimulus":"<p>Your score for this illusion is <p style=\"color: black; font-size: 48px; font-weight: bold;\">4613</p><hr><p style='color:rgb(76,175,80);'>You performed better than <b>88.99</b>% of the population.</p><hr><p>Can you do better in the next illusion?</p>","response":0,"screen":"block_results","trial_type":"html-button-response","trial_index":36,"time_elapsed":24699,"internal_node_id":"0.0-6.0-3.0","screen_height":944,"screen_width":2048,"browser":"chrome","browser_version":"103.0.0","mobile":false,"os":"Windows 10","vsync_rate":60.12,"participant_id":"S01"},{"success":true,"timeout":false,"failed_images":[],"failed_audio":[],"failed_video":[],"trial_type":"preload","trial_index":37,"time_elapsed":24700,"internal_node_id":"0.0-7.0-0.0","screen_height":944,"screen_width":2048,"browser":"chrome","browser_version":"103.0.0","mobile":false,"os":"Windows 10","vsync_rate":60.12,"participant_id":"S01"},{"rt":1154,"stimulus":"<p><b>Part 4</b></p><p>In this part, two horizontal red lines will appear one above the other.</p><p>Your task is to select which <b>line is longer</b> in size as fast as you can, without making errors.</p><p>Don't get distracted by the surrounding black arrows at the end of the red lines!</p><p>Press <b>the UP or the DOWN arrow</b> to indicate where is the longest <b>red line.</b></p><div style='float: center'><img src='utils/stimuli_demo/MullerLyer_Demo.png' height='300'></img><p><img src='utils/answer/answer_updown_keyboard.PNG' height='150'></img></p><p class='small'>In this example, the correct answer is the <b>UP arrow</b>.</p></div><p>Are you ready? <b>Press ENTER to start</b></p>","response":"enter","trial_type":"html-keyboard-response","trial_index":38,"time_elapsed":25854,"internal_node_id":"0.0-7.0-1.0","screen_height":944,"screen_width":2048,"browser":"chrome","browser_version":"103.0.0","mobile":false,"os":"Windows 10","vsync_rate":60.12,"participant_id":"S01"},{"rt":null,"stimulus":"<div style=\"font-size:60px;\">+</div>","response":null,"screen":"fixation","trial_type":"html-keyboard-response","trial_index":39,"time_elapsed":26370,"internal_node_id":"0.0-7.0-2.0-0.0","screen_height":944,"screen_width":2048,"browser":"chrome","browser_version":"103.0.0","mobile":false,"os":"Windows 10","vsync_rate":60.12,"participant_id":"S01","trial_duration":0},{"rt":817,"stimulus":"stimuli/MullerLyer_str-50.0_diff-0.3.png","response":"arrowdown","screen":"Trial","block":"MullerLyer","correct_response":"arrowdown","trial_type":"image-keyboard-response","trial_index":40,"time_elapsed":27187,"internal_node_id":"0.0-7.0-2.0-1.0","screen_height":944,"screen_width":2048,"browser":"chrome","browser_version":"103.0.0","mobile":false,"os":"Windows 10","vsync_rate":60.12,"participant_id":"S01","prestimulus_duration":516,"correct":true,"type":"MullerLyer","illusion_strength":-50,"illusion_difference":-0.3,"block_number":4,"trial_number":1},{"rt":null,"stimulus":"<div style=\"font-size:60px;\">+</div>","response":null,"screen":"fixation","trial_type":"html-keyboard-response","trial_index":41,"time_elapsed":27195,"internal_node_id":"0.0-7.0-2.0-0.1","screen_height":944,"screen_width":2048,"browser":"chrome","browser_version":"103.0.0","mobile":false,"os":"Windows 10","vsync_rate":60.12,"participant_id":"S01","trial_duration":0},{"rt":399,"stimulus":"stimuli/MullerLyer_str-50.0_diff0.3.png","response":"arrowdown","screen":"Trial","block":"MullerLyer","correct_response":"arrowup","trial_type":"image-keyboard-response","trial_index":42,"time_elapsed":27594,"internal_node_id":"0.0-7.0-2.0-1.1","screen_height":944,"screen_width":2048,"browser":"chrome","browser_version":"103.0.0","mobile":false,"os":"Windows 10","vsync_rate":60.12,"participant_id":"S01","prestimulus_duration":8,"correct":false,"type":"MullerLyer","illusion_strength":-50,"illusion_difference":0.3,"block_number":4,"trial_number":2},{"rt":null,"stimulus":"<div style=\"font-size:60px;\">+</div>","response":null,"screen":"fixation","trial_type":"html-keyboard-response","trial_index":43,"time_elapsed":27596,"internal_node_id":"0.0-7.0-2.0-0.2","screen_height":944,"screen_width":2048,"browser":"chrome","browser_version":"103.0.0","mobile":false,"os":"Windows 10","vsync_rate":60.12,"participant_id":"S01","trial_duration":0},{"rt":397,"stimulus":"stimuli/MullerLyer_str50.0_diff-0.3.png","response":"arrowdown","screen":"Trial","block":"MullerLyer","correct_response":"arrowdown","trial_type":"image-keyboard-response","trial_index":44,"time_elapsed":27994,"internal_node_id":"0.0-7.0-2.0-1.2","screen_height":944,"screen_width":2048,"browser":"chrome","browser_version":"103.0.0","mobile":false,"os":"Windows 10","vsync_rate":60.12,"participant_id":"S01","prestimulus_duration":2,"correct":true,"type":"MullerLyer","illusion_strength":50,"illusion_difference":-0.3,"block_number":4,"trial_number":3},{"rt":null,"stimulus":"<div style=\"font-size:60px;\">+</div>","response":null,"screen":"fixation","trial_type":"html-keyboard-response","trial_index":45,"time_elapsed":27995,"internal_node_id":"0.0-7.0-2.0-0.3","screen_height":944,"screen_width":2048,"browser":"chrome","browser_version":"103.0.0","mobile":false,"os":"Windows 10","vsync_rate":60.12,"participant_id":"S01","trial_duration":0},{"rt":379,"stimulus":"stimuli/MullerLyer_str50.0_diff0.3.png","response":"arrowdown","screen":"Trial","block":"MullerLyer","correct_response":"arrowup","trial_type":"image-keyboard-response","trial_index":46,"time_elapsed":28375,"internal_node_id":"0.0-7.0-2.0-1.3","screen_height":944,"screen_width":2048,"browser":"chrome","browser_version":"103.0.0","mobile":false,"os":"Windows 10","vsync_rate":60.12,"participant_id":"S01","prestimulus_duration":1,"correct":false,"type":"MullerLyer","illusion_strength":50,"illusion_difference":0.3,"block_number":4,"trial_number":4},{"rt":619,"stimulus":"<p>Your score for this illusion is <p style=\"color: black; font-size: 48px; font-weight: bold;\">3786</p><hr><p style='color:rgb(76,175,80);'>You performed better than <b>30.90</b>% of the population.</p><hr><p>Can you do better in the next illusion?</p>","response":0,"screen":"block_results","trial_type":"html-button-response","trial_index":47,"time_elapsed":28994,"internal_node_id":"0.0-7.0-3.0","screen_height":944,"screen_width":2048,"browser":"chrome","browser_version":"103.0.0","mobile":false,"os":"Windows 10","vsync_rate":60.12,"participant_id":"S01"},{"success":true,"timeout":false,"failed_images":[],"failed_audio":[],"failed_video":[],"trial_type":"preload","trial_index":48,"time_elapsed":28995,"internal_node_id":"0.0-8.0-0.0","screen_height":944,"screen_width":2048,"browser":"chrome","browser_version":"103.0.0","mobile":false,"os":"Windows 10","vsync_rate":60.12,"participant_id":"S01"},{"rt":1146,"stimulus":"<p><b>Part 5</b></p><p>In this part, two red circles will appear side by side on the screen.</p><p>Your task is to select which <b>red circle is bigger</b> in size as fast as you can, without making errors.</p><p>Don't get distracted by the black outlines around the red circles!</p><p>Press <b>the LEFT or the RIGHT arrow</b> to indicate where is the biggest <b>red circle.</b></p><div style='float: center'><img src='utils/stimuli_demo/Delboeuf_Demo.png' height='300'></img><p><img src='utils/answer/answer_leftright_keyboard.PNG' height='150'></img></p><p class='small'>In this example, the correct answer is the <b>LEFT arrow</b>.</p></div><p>Are you ready? <b>Press ENTER to start</b></p>","response":"enter","trial_type":"html-keyboard-response","trial_index":49,"time_elapsed":30141,"internal_node_id":"0.0-8.0-1.0","screen_height":944,"screen_width":2048,"browser":"chrome","browser_version":"103.0.0","mobile":false,"os":"Windows 10","vsync_rate":60.12,"participant_id":"S01"},{"rt":null,"stimulus":"<div style=\"font-size:60px;\">+</div>","response":null,"screen":"fixation","trial_type":"html-keyboard-response","trial_index":50,"time_elapsed":30647,"internal_node_id":"0.0-8.0-2.0-0.0","screen_height":944,"screen_width":2048,"browser":"chrome","browser_version":"103.0.0","mobile":false,"os":"Windows 10","vsync_rate":60.12,"participant_id":"S01","trial_duration":0},{"rt":782,"stimulus":"stimuli/Delboeuf_str-1.0_diff-1.0.png","response":"arrowleft","screen":"Trial","block":"Delboeuf","correct_response":"arrowright","trial_type":"image-keyboard-response","trial_index":51,"time_elapsed":31430,"internal_node_id":"0.0-8.0-2.0-1.0","screen_height":944,"screen_width":2048,"browser":"chrome","browser_version":"103.0.0","mobile":false,"os":"Windows 10","vsync_rate":60.12,"participant_id":"S01","prestimulus_duration":506,"correct":false,"type":"Delboeuf","illusion_strength":-1,"illusion_difference":-1,"block_number":5,"trial_number":1},{"rt":null,"stimulus":"<div style=\"font-size:60px;\">+</div>","response":null,"screen":"fixation","trial_type":"html-keyboard-response","trial_index":52,"time_elapsed":31432,"internal_node_id":"0.0-8.0-2.0-0.1","screen_height":944,"screen_width":2048,"browser":"chrome","browser_version":"103.0.0","mobile":false,"os":"Windows 10","vsync_rate":60.12,"participant_id":"S01","trial_duration":0},{"rt":554,"stimulus":"stimuli/Delboeuf_str-1.0_diff1.0.png","response":"arrowleft","screen":"Trial","block":"Delboeuf","correct_response":"arrowleft","trial_type":"image-keyboard-response","trial_index":53,"time_elapsed":31986,"internal_node_id":"0.0-8.0-2.0-1.1","screen_height":944,"screen_width":2048,"browser":"chrome","browser_version":"103.0.0","mobile":false,"os":"Windows 10","vsync_rate":60.12,"participant_id":"S01","prestimulus_duration":2,"correct":true,"type":"Delboeuf","illusion_strength":-1,"illusion_difference":1,"block_number":5,"trial_number":2},{"rt":null,"stimulus":"<div style=\"font-size:60px;\">+</div>","response":null,"screen":"fixation","trial_type":"html-keyboard-response","trial_index":54,"time_elapsed":31989,"internal_node_id":"0.0-8.0-2.0-0.2","screen_height":944,"screen_width":2048,"browser":"chrome","browser_version":"103.0.0","mobile":false,"os":"Windows 10","vsync_rate":60.12,"participant_id":"S01","trial_duration":0},{"rt":438,"stimulus":"stimuli/Delboeuf_str1.0_diff-1.0.png","response":"arrowleft","screen":"Trial","block":"Delboeuf","correct_response":"arrowright","trial_type":"image-keyboard-response","trial_index":55,"time_elapsed":32427,"internal_node_id":"0.0-8.0-2.0-1.2","screen_height":944,"screen_width":2048,"browser":"chrome","browser_version":"103.0.0","mobile":false,"os":"Windows 10","vsync_rate":60.12,"participant_id":"S01","prestimulus_duration":3,"correct":false,"type":"Delboeuf","illusion_strength":1,"illusion_difference":-1,"block_number":5,"trial_number":3},{"rt":null,"stimulus":"<div style=\"font-size:60px;\">+</div>","response":null,"screen":"fixation","trial_type":"html-keyboard-response","trial_index":56,"time_elapsed":32429,"internal_node_id":"0.0-8.0-2.0-0.3","screen_height":944,"screen_width":2048,"browser":"chrome","browser_version":"103.0.0","mobile":false,"os":"Windows 10","vsync_rate":60.12,"participant_id":"S01","trial_duration":0},{"rt":318,"stimulus":"stimuli/Delboeuf_str1.0_diff1.0.png","response":"arrowleft","screen":"Trial","block":"Delboeuf","correct_response":"arrowleft","trial_type":"image-keyboard-response","trial_index":57,"time_elapsed":32748,"internal_node_id":"0.0-8.0-2.0-1.3","screen_height":944,"screen_width":2048,"browser":"chrome","browser_version":"103.0.0","mobile":false,"os":"Windows 10","vsync_rate":60.12,"participant_id":"S01","prestimulus_duration":2,"correct":true,"type":"Delboeuf","illusion_strength":1,"illusion_difference":1,"block_number":5,"trial_number":4},{"rt":570,"stimulus":"<p>Your score for this illusion is <p style=\"color: black; font-size: 48px; font-weight: bold;\">4128</p><hr><p style='color:rgb(76,175,80);'>You performed better than <b>44.73</b>% of the population.</p><hr><p>Can you do better in the next illusion?</p>","response":0,"screen":"block_results","trial_type":"html-button-response","trial_index":58,"time_elapsed":33319,"internal_node_id":"0.0-8.0-3.0","screen_height":944,"screen_width":2048,"browser":"chrome","browser_version":"103.0.0","mobile":false,"os":"Windows 10","vsync_rate":60.12,"participant_id":"S01"},{"success":true,"timeout":false,"failed_images":[],"failed_audio":[],"failed_video":[],"trial_type":"preload","trial_index":59,"time_elapsed":33319,"internal_node_id":"0.0-9.0-0.0","screen_height":944,"screen_width":2048,"browser":"chrome","browser_version":"103.0.0","mobile":false,"os":"Windows 10","vsync_rate":60.12,"participant_id":"S01"},{"rt":908,"stimulus":"<p><b>Part 6</b></p><p>In this part, two vertical grey rectangles will appear side by side.</p><p>Your task is to tell <b>which rectangle is of a lighter color</b>, as fast as you can, and without making errors.</p><p>Don't get distracted by the background color!</p><p>Press <b>the LEFT or the RIGHT arrow</b> to indicate which <b>side has the lighter rectangle.</b></p><div style='float: center'><img src='utils/stimuli_demo/White_Demo.png' height='300'></img><p><img src='utils/answer/answer_leftright_keyboard.PNG' height='150'></img></p><p class='small'>In this example, the correct answer is the <b>LEFT arrow</b>.</p></div><p>Are you ready? <b>Press ENTER to start</b></p>","response":"enter","trial_type":"html-keyboard-response","trial_index":60,"time_elapsed":34228,"internal_node_id":"0.0-9.0-1.0","screen_height":944,"screen_width":2048,"browser":"chrome","browser_version":"103.0.0","mobile":false,"os":"Windows 10","vsync_rate":60.12,"participant_id":"S01"},{"rt":null,"stimulus":"<div style=\"font-size:60px;\">+</div>","response":null,"screen":"fixation","trial_type":"html-keyboard-response","trial_index":61,"time_elapsed":34742,"internal_node_id":"0.0-9.0-2.0-0.0","screen_height":944,"screen_width":2048,"browser":"chrome","browser_version":"103.0.0","mobile":false,"os":"Windows 10","vsync_rate":60.12,"participant_id":"S01","trial_duration":0},{"rt":659,"stimulus":"stimuli/White_str30.0_diff40.0.png","response":"arrowright","screen":"Trial","block":"White","correct_response":"arrowleft","trial_type":"image-keyboard-response","trial_index":62,"time_elapsed":35401,"internal_node_id":"0.0-9.0-2.0-1.0","screen_height":944,"screen_width":2048,"browser":"chrome","browser_version":"103.0.0","mobile":false,"os":"Windows 10","vsync_rate":60.12,"participant_id":"S01","prestimulus_duration":514,"correct":false,"type":"White","illusion_strength":30,"illusion_difference":40,"block_number":6,"trial_number":1},{"rt":null,"stimulus":"<div style=\"font-size:60px;\">+</div>","response":null,"screen":"fixation","trial_type":"html-keyboard-response","trial_index":63,"time_elapsed":35404,"internal_node_id":"0.0-9.0-2.0-0.1","screen_height":944,"screen_width":2048,"browser":"chrome","browser_version":"103.0.0","mobile":false,"os":"Windows 10","vsync_rate":60.12,"participant_id":"S01","trial_duration":0},{"rt":240,"stimulus":"stimuli/White_str30.0_diff-40.0.png","response":"arrowright","screen":"Trial","block":"White","correct_response":"arrowright","trial_type":"image-keyboard-response","trial_index":64,"time_elapsed":35644,"internal_node_id":"0.0-9.0-2.0-1.1","screen_height":944,"screen_width":2048,"browser":"chrome","browser_version":"103.0.0","mobile":false,"os":"Windows 10","vsync_rate":60.12,"participant_id":"S01","prestimulus_duration":3,"correct":true,"type":"White","illusion_strength":30,"illusion_difference":-40,"block_number":6,"trial_number":2},{"rt":null,"stimulus":"<div style=\"font-size:60px;\">+</div>","response":null,"screen":"fixation","trial_type":"html-keyboard-response","trial_index":65,"time_elapsed":35646,"internal_node_id":"0.0-9.0-2.0-0.2","screen_height":944,"screen_width":2048,"browser":"chrome","browser_version":"103.0.0","mobile":false,"os":"Windows 10","vsync_rate":60.12,"participant_id":"S01","trial_duration":0},{"rt":592,"stimulus":"stimuli/White_str-30.0_diff40.0.png","response":"arrowright","screen":"Trial","block":"White","correct_response":"arrowleft","trial_type":"image-keyboard-response","trial_index":66,"time_elapsed":36241,"internal_node_id":"0.0-9.0-2.0-1.2","screen_height":944,"screen_width":2048,"browser":"chrome","browser_version":"103.0.0","mobile":false,"os":"Windows 10","vsync_rate":60.12,"participant_id":"S01","prestimulus_duration":2,"correct":false,"type":"White","illusion_strength":-30,"illusion_difference":40,"block_number":6,"trial_number":3},{"rt":null,"stimulus":"<div style=\"font-size:60px;\">+</div>","response":null,"screen":"fixation","trial_type":"html-keyboard-response","trial_index":67,"time_elapsed":36244,"internal_node_id":"0.0-9.0-2.0-0.3","screen_height":944,"screen_width":2048,"browser":"chrome","browser_version":"103.0.0","mobile":false,"os":"Windows 10","vsync_rate":60.12,"participant_id":"S01","trial_duration":0},{"rt":471,"stimulus":"stimuli/White_str-30.0_diff-40.0.png","response":"arrowright","screen":"Trial","block":"White","correct_response":"arrowright","trial_type":"image-keyboard-response","trial_index":68,"time_elapsed":36716,"internal_node_id":"0.0-9.0-2.0-1.3","screen_height":944,"screen_width":2048,"browser":"chrome","browser_version":"103.0.0","mobile":false,"os":"Windows 10","vsync_rate":60.12,"participant_id":"S01","prestimulus_duration":3,"correct":true,"type":"White","illusion_strength":-30,"illusion_difference":-40,"block_number":6,"trial_number":4},{"rt":752,"stimulus":"<p>Your score for this illusion is <p style=\"color: black; font-size: 48px; font-weight: bold;\">4289</p><hr><p style='color:rgb(76,175,80);'>You performed better than <b>71.84</b>% of the population.</p><hr><p>Can you do better in the next illusion?</p>","response":0,"screen":"block_results","trial_type":"html-button-response","trial_index":69,"time_elapsed":37468,"internal_node_id":"0.0-9.0-3.0","screen_height":944,"screen_width":2048,"browser":"chrome","browser_version":"103.0.0","mobile":false,"os":"Windows 10","vsync_rate":60.12,"participant_id":"S01"},{"success":true,"timeout":false,"failed_images":[],"failed_audio":[],"failed_video":[],"trial_type":"preload","trial_index":70,"time_elapsed":37469,"internal_node_id":"0.0-10.0-0.0","screen_height":944,"screen_width":2048,"browser":"chrome","browser_version":"103.0.0","mobile":false,"os":"Windows 10","vsync_rate":60.12,"participant_id":"S01"},{"rt":792,"stimulus":"<p><b>Part 7</b></p><p>In this part, two small grey rectangles will appear one above the other.</p><p>Your task is to select which rectangle is <b>lighter</b> as fast as you can, without making errors.</p><p>Don't get distracted by the surrounding background!</p><p>Press <b>the UP or the DOWN arrow</b> to indicate where is the <b>lighter rectangle.</b></p><div style='float: center'><img src='utils/stimuli_demo/Contrast_Demo.png' height='300'></img><p><img src='utils/answer/answer_updown_keyboard.PNG' height='150'></img></p><p class='small'>In this example, the correct answer is the <b>UP arrow</b>.</p></div><p>Are you ready? <b>Press ENTER to start</b></p>","response":"enter","trial_type":"html-keyboard-response","trial_index":71,"time_elapsed":38262,"internal_node_id":"0.0-10.0-1.0","screen_height":944,"screen_width":2048,"browser":"chrome","browser_version":"103.0.0","mobile":false,"os":"Windows 10","vsync_rate":60.12,"participant_id":"S01"},{"rt":null,"stimulus":"<div style=\"font-size:60px;\">+</div>","response":null,"screen":"fixation","trial_type":"html-keyboard-response","trial_index":72,"time_elapsed":38774,"internal_node_id":"0.0-10.0-2.0-0.0","screen_height":944,"screen_width":2048,"browser":"chrome","browser_version":"103.0.0","mobile":false,"os":"Windows 10","vsync_rate":60.12,"participant_id":"S01","trial_duration":0},{"rt":594,"stimulus":"stimuli/Contrast_str50.0_diff-40.0.png","response":"arrowup","screen":"Trial","block":"Contrast","correct_response":"arrowdown","trial_type":"image-keyboard-response","trial_index":73,"time_elapsed":39368,"internal_node_id":"0.0-10.0-2.0-1.0","screen_height":944,"screen_width":2048,"browser":"chrome","browser_version":"103.0.0","mobile":false,"os":"Windows 10","vsync_rate":60.12,"participant_id":"S01","prestimulus_duration":512,"correct":false,"type":"Contrast","illusion_strength":50,"illusion_difference":-40,"block_number":7,"trial_number":1},{"rt":null,"stimulus":"<div style=\"font-size:60px;\">+</div>","response":null,"screen":"fixation","trial_type":"html-keyboard-response","trial_index":74,"time_elapsed":39371,"internal_node_id":"0.0-10.0-2.0-0.1","screen_height":944,"screen_width":2048,"browser":"chrome","browser_version":"103.0.0","mobile":false,"os":"Windows 10","vsync_rate":60.12,"participant_id":"S01","trial_duration":0},{"rt":901,"stimulus":"stimuli/Contrast_str-50.0_diff-40.0.png","response":"arrowup","screen":"Trial","block":"Contrast","correct_response":"arrowdown","trial_type":"image-keyboard-response","trial_index":75,"time_elapsed":40272,"internal_node_id":"0.0-10.0-2.0-1.1","screen_height":944,"screen_width":2048,"browser":"chrome","browser_version":"103.0.0","mobile":false,"os":"Windows 10","vsync_rate":60.12,"participant_id":"S01","prestimulus_duration":3,"correct":false,"type":"Contrast","illusion_strength":-50,"illusion_difference":-40,"block_number":7,"trial_number":2},{"rt":null,"stimulus":"<div style=\"font-size:60px;\">+</div>","response":null,"screen":"fixation","trial_type":"html-keyboard-response","trial_index":76,"time_elapsed":40275,"internal_node_id":"0.0-10.0-2.0-0.2","screen_height":944,"screen_width":2048,"browser":"chrome","browser_version":"103.0.0","mobile":false,"os":"Windows 10","vsync_rate":60.12,"participant_id":"S01","trial_duration":0},{"rt":724,"stimulus":"stimuli/Contrast_str50.0_diff40.0.png","response":"arrowup","screen":"Trial","block":"Contrast","correct_response":"arrowup","trial_type":"image-keyboard-response","trial_index":77,"time_elapsed":40999,"internal_node_id":"0.0-10.0-2.0-1.2","screen_height":944,"screen_width":2048,"browser":"chrome","browser_version":"103.0.0","mobile":false,"os":"Windows 10","vsync_rate":60.12,"participant_id":"S01","prestimulus_duration":3,"correct":true,"type":"Contrast","illusion_strength":50,"illusion_difference":40,"block_number":7,"trial_number":3},{"rt":null,"stimulus":"<div style=\"font-size:60px;\">+</div>","response":null,"screen":"fixation","trial_type":"html-keyboard-response","trial_index":78,"time_elapsed":41007,"internal_node_id":"0.0-10.0-2.0-0.3","screen_height":944,"screen_width":2048,"browser":"chrome","browser_version":"103.0.0","mobile":false,"os":"Windows 10","vsync_rate":60.12,"participant_id":"S01","trial_duration":0},{"rt":726,"stimulus":"stimuli/Contrast_str-50.0_diff40.0.png","response":"arrowup","screen":"Trial","block":"Contrast","correct_response":"arrowup","trial_type":"image-keyboard-response","trial_index":79,"time_elapsed":41734,"internal_node_id":"0.0-10.0-2.0-1.3","screen_height":944,"screen_width":2048,"browser":"chrome","browser_version":"103.0.0","mobile":false,"os":"Windows 10","vsync_rate":60.12,"participant_id":"S01","prestimulus_duration":8,"correct":true,"type":"Contrast","illusion_strength":-50,"illusion_difference":40,"block_number":7,"trial_number":4},{"rt":732,"stimulus":"<p>Your score for this illusion is <p style=\"color: black; font-size: 48px; font-weight: bold;\">3550</p><hr><p style='color:rgb(76,175,80);'>You performed better than <b>18.41</b>% of the population.</p><hr><p>Can you do better in the next illusion?</p>","response":0,"screen":"block_results","trial_type":"html-button-response","trial_index":80,"time_elapsed":42466,"internal_node_id":"0.0-10.0-3.0","screen_height":944,"screen_width":2048,"browser":"chrome","browser_version":"103.0.0","mobile":false,"os":"Windows 10","vsync_rate":60.12,"participant_id":"S01"},{"success":true,"timeout":false,"failed_images":[],"failed_audio":[],"failed_video":[],"trial_type":"preload","trial_index":81,"time_elapsed":42467,"internal_node_id":"0.0-11.0-0.0","screen_height":944,"screen_width":2048,"browser":"chrome","browser_version":"103.0.0","mobile":false,"os":"Windows 10","vsync_rate":60.12,"participant_id":"S01"},{"rt":1301,"stimulus":"<p><b>Part 8</b></p><p>In this part, two red lines will appear side by side.</p><p>Your task is to tell <b>which line is the longer</b> as fast as you can, and without making errors.</p><p>Don't get distracted by the orientation of the lines!</p><p>Press <b>the LEFT or the RIGHT arrow</b> to indicate which <b>line is the longer one.</b></p><div style='float: center'><img src='utils/stimuli_demo/VerticalHorizontal_Demo.png' height='300'></img><p><img src='utils/answer/answer_leftright_keyboard.PNG' height='150'></img></p><p class='small'>In this example, the correct answer is the <b>LEFT arrow</b>.</p></div><p>Are you ready? <b>Press ENTER to start</b></p>","response":"enter","trial_type":"html-keyboard-response","trial_index":82,"time_elapsed":43769,"internal_node_id":"0.0-11.0-1.0","screen_height":944,"screen_width":2048,"browser":"chrome","browser_version":"103.0.0","mobile":false,"os":"Windows 10","vsync_rate":60.12,"participant_id":"S01"},{"rt":null,"stimulus":"<div style=\"font-size:60px;\">+</div>","response":null,"screen":"fixation","trial_type":"html-keyboard-response","trial_index":83,"time_elapsed":44287,"internal_node_id":"0.0-11.0-2.0-0.0","screen_height":944,"screen_width":2048,"browser":"chrome","browser_version":"103.0.0","mobile":false,"os":"Windows 10","vsync_rate":60.12,"participant_id":"S01","trial_duration":0},{"rt":829,"stimulus":"stimuli/VerticalHorizontal_str-90.0_diff0.3.png","response":"arrowright","screen":"Trial","block":"VerticalHorizontal","correct_response":"arrowleft","trial_type":"image-keyboard-response","trial_index":84,"time_elapsed":45116,"internal_node_id":"0.0-11.0-2.0-1.0","screen_height":944,"screen_width":2048,"browser":"chrome","browser_version":"103.0.0","mobile":false,"os":"Windows 10","vsync_rate":60.12,"participant_id":"S01","prestimulus_duration":518,"correct":false,"type":"VerticalHorizontal","illusion_strength":-90,"illusion_difference":0.3,"block_number":8,"trial_number":1},{"rt":null,"stimulus":"<div style=\"font-size:60px;\">+</div>","response":null,"screen":"fixation","trial_type":"html-keyboard-response","trial_index":85,"time_elapsed":45117,"internal_node_id":"0.0-11.0-2.0-0.1","screen_height":944,"screen_width":2048,"browser":"chrome","browser_version":"103.0.0","mobile":false,"os":"Windows 10","vsync_rate":60.12,"participant_id":"S01","trial_duration":0},{"rt":742,"stimulus":"stimuli/VerticalHorizontal_str90.0_diff0.3.png","response":"arrowright","screen":"Trial","block":"VerticalHorizontal","correct_response":"arrowleft","trial_type":"image-keyboard-response","trial_index":86,"time_elapsed":45860,"internal_node_id":"0.0-11.0-2.0-1.1","screen_height":944,"screen_width":2048,"browser":"chrome","browser_version":"103.0.0","mobile":false,"os":"Windows 10","vsync_rate":60.12,"participant_id":"S01","prestimulus_duration":1,"correct":false,"type":"VerticalHorizontal","illusion_strength":90,"illusion_difference":0.3,"block_number":8,"trial_number":2},{"rt":null,"stimulus":"<div style=\"font-size:60px;\">+</div>","response":null,"screen":"fixation","trial_type":"html-keyboard-response","trial_index":87,"time_elapsed":45863,"internal_node_id":"0.0-11.0-2.0-0.2","screen_height":944,"screen_width":2048,"browser":"chrome","browser_version":"103.0.0","mobile":false,"os":"Windows 10","vsync_rate":60.12,"participant_id":"S01","trial_duration":0},{"rt":667,"stimulus":"stimuli/VerticalHorizontal_str90.0_diff-0.3.png","response":"arrowright","screen":"Trial","block":"VerticalHorizontal","correct_response":"arrowright","trial_type":"image-keyboard-response","trial_index":88,"time_elapsed":46530,"internal_node_id":"0.0-11.0-2.0-1.2","screen_height":944,"screen_width":2048,"browser":"chrome","browser_version":"103.0.0","mobile":false,"os":"Windows 10","vsync_rate":60.12,"participant_id":"S01","prestimulus_duration":3,"correct":true,"type":"VerticalHorizontal","illusion_strength":90,"illusion_difference":-0.3,"block_number":8,"trial_number":3},{"rt":null,"stimulus":"<div style=\"font-size:60px;\">+</div>","response":null,"screen":"fixation","trial_type":"html-keyboard-response","trial_index":89,"time_elapsed":46533,"internal_node_id":"0.0-11.0-2.0-0.3","screen_height":944,"screen_width":2048,"browser":"chrome","browser_version":"103.0.0","mobile":false,"os":"Windows 10","vsync_rate":60.12,"participant_id":"S01","trial_duration":0},{"rt":580,"stimulus":"stimuli/VerticalHorizontal_str-90.0_diff-0.3.png","response":"arrowright","screen":"Trial","block":"VerticalHorizontal","correct_response":"arrowright","trial_type":"image-keyboard-response","trial_index":90,"time_elapsed":47114,"internal_node_id":"0.0-11.0-2.0-1.3","screen_height":944,"screen_width":2048,"browser":"chrome","browser_version":"103.0.0","mobile":false,"os":"Windows 10","vsync_rate":60.12,"participant_id":"S01","prestimulus_duration":3,"correct":true,"type":"VerticalHorizontal","illusion_strength":-90,"illusion_difference":-0.3,"block_number":8,"trial_number":4},{"rt":663,"stimulus":"<p>Your score for this illusion is <p style=\"color: black; font-size: 48px; font-weight: bold;\">3753</p><hr><p style='color:rgb(76,175,80);'>You performed better than <b>31.07</b>% of the population.</p><hr><p>Can you do better in the next illusion?</p>","response":0,"screen":"block_results","trial_type":"html-button-response","trial_index":91,"time_elapsed":47777,"internal_node_id":"0.0-11.0-3.0","screen_height":944,"screen_width":2048,"browser":"chrome","browser_version":"103.0.0","mobile":false,"os":"Windows 10","vsync_rate":60.12,"participant_id":"S01"},{"success":true,"timeout":false,"failed_images":[],"failed_audio":[],"failed_video":[],"trial_type":"preload","trial_index":92,"time_elapsed":47778,"internal_node_id":"0.0-12.0-0.0","screen_height":944,"screen_width":2048,"browser":"chrome","browser_version":"103.0.0","mobile":false,"os":"Windows 10","vsync_rate":60.12,"participant_id":"S01"},{"rt":821,"stimulus":"<p><b>Part 9</b></p><p>In this part, two red lines will appear, one above the other, but their overlapping section is hidden behind a grey rectangle.</p><p>Your task is to tell if the <b>right</b> red line, <b>behind the rectangle, is above or below</b> the left line. You need to answer as fast as you can, without making errors.</p><p>Press <b>the UP or the DOWN arrow</b> to indicate whether the <b>right red line is actually above or below the left red line.</b></p><div style='float: center'><img src='utils/stimuli_demo/Poggendorff_Demo.png' height='300'></img><p><img src='utils/answer/answer_updown_keyboard.PNG' height='150'></img></p><p class='small'>In this example, the correct answer is the <b>UP arrow</b>.</p></div><p>Are you ready? <b>Press ENTER to start</b></p>","response":"enter","trial_type":"html-keyboard-response","trial_index":93,"time_elapsed":48599,"internal_node_id":"0.0-12.0-1.0","screen_height":944,"screen_width":2048,"browser":"chrome","browser_version":"103.0.0","mobile":false,"os":"Windows 10","vsync_rate":60.12,"participant_id":"S01"},{"rt":null,"stimulus":"<div style=\"font-size:60px;\">+</div>","response":null,"screen":"fixation","trial_type":"html-keyboard-response","trial_index":94,"time_elapsed":49105,"internal_node_id":"0.0-12.0-2.0-0.0","screen_height":944,"screen_width":2048,"browser":"chrome","browser_version":"103.0.0","mobile":false,"os":"Windows 10","vsync_rate":60.12,"participant_id":"S01","trial_duration":0},{"rt":700,"stimulus":"stimuli/Poggendorff_str55.0_diff0.3.png","response":"arrowup","screen":"Trial","block":"Poggendorff","correct_response":"arrowup","trial_type":"image-keyboard-response","trial_index":95,"time_elapsed":49805,"internal_node_id":"0.0-12.0-2.0-1.0","screen_height":944,"screen_width":2048,"browser":"chrome","browser_version":"103.0.0","mobile":false,"os":"Windows 10","vsync_rate":60.12,"participant_id":"S01","prestimulus_duration":506,"correct":true,"type":"Poggendorff","illusion_strength":55,"illusion_difference":0.3,"block_number":9,"trial_number":1},{"rt":null,"stimulus":"<div style=\"font-size:60px;\">+</div>","response":null,"screen":"fixation","trial_type":"html-keyboard-response","trial_index":96,"time_elapsed":49806,"internal_node_id":"0.0-12.0-2.0-0.1","screen_height":944,"screen_width":2048,"browser":"chrome","browser_version":"103.0.0","mobile":false,"os":"Windows 10","vsync_rate":60.12,"participant_id":"S01","trial_duration":0},{"rt":617,"stimulus":"stimuli/Poggendorff_str25.0_diff0.3.png","response":"arrowdown","screen":"Trial","block":"Poggendorff","correct_response":"arrowup","trial_type":"image-keyboard-response","trial_index":97,"time_elapsed":50424,"internal_node_id":"0.0-12.0-2.0-1.1","screen_height":944,"screen_width":2048,"browser":"chrome","browser_version":"103.0.0","mobile":false,"os":"Windows 10","vsync_rate":60.12,"participant_id":"S01","prestimulus_duration":1,"correct":false,"type":"Poggendorff","illusion_strength":25,"illusion_difference":0.3,"block_number":9,"trial_number":2},{"rt":null,"stimulus":"<div style=\"font-size:60px;\">+</div>","response":null,"screen":"fixation","trial_type":"html-keyboard-response","trial_index":98,"time_elapsed":50425,"internal_node_id":"0.0-12.0-2.0-0.2","screen_height":944,"screen_width":2048,"browser":"chrome","browser_version":"103.0.0","mobile":false,"os":"Windows 10","vsync_rate":60.12,"participant_id":"S01","trial_duration":0},{"rt":539,"stimulus":"stimuli/Poggendorff_str25.0_diff-0.3.png","response":"arrowdown","screen":"Trial","block":"Poggendorff","correct_response":"arrowdown","trial_type":"image-keyboard-response","trial_index":99,"time_elapsed":50965,"internal_node_id":"0.0-12.0-2.0-1.2","screen_height":944,"screen_width":2048,"browser":"chrome","browser_version":"103.0.0","mobile":false,"os":"Windows 10","vsync_rate":60.12,"participant_id":"S01","prestimulus_duration":1,"correct":true,"type":"Poggendorff","illusion_strength":25,"illusion_difference":-0.3,"block_number":9,"trial_number":3},{"rt":null,"stimulus":"<div style=\"font-size:60px;\">+</div>","response":null,"screen":"fixation","trial_type":"html-keyboard-response","trial_index":100,"time_elapsed":50974,"internal_node_id":"0.0-12.0-2.0-0.3","screen_height":944,"screen_width":2048,"browser":"chrome","browser_version":"103.0.0","mobile":false,"os":"Windows 10","vsync_rate":60.12,"participant_id":"S01","trial_duration":0},{"rt":473,"stimulus":"stimuli/Poggendorff_str55.0_diff-0.3.png","response":"arrowdown","screen":"Trial","block":"Poggendorff","correct_response":"arrowdown","trial_type":"image-keyboard-response","trial_index":101,"time_elapsed":51448,"internal_node_id":"0.0-12.0-2.0-1.3","screen_height":944,"screen_width":2048,"browser":"chrome","browser_version":"103.0.0","mobile":false,"os":"Windows 10","vsync_rate":60.12,"participant_id":"S01","prestimulus_duration":9,"correct":true,"type":"Poggendorff","illusion_strength":55,"illusion_difference":-0.3,"block_number":9,"trial_number":4},{"rt":608,"stimulus":"<p>Your score for this illusion is <p style=\"color: black; font-size: 48px; font-weight: bold;\">4239</p><hr><p style='color:rgb(76,175,80);'>You performed better than <b>68.38</b>% of the population.</p><hr><p>Can you do better in the next illusion?</p>","response":0,"screen":"block_results","trial_type":"html-button-response","trial_index":102,"time_elapsed":52056,"internal_node_id":"0.0-12.0-3.0","screen_height":944,"screen_width":2048,"browser":"chrome","browser_version":"103.0.0","mobile":false,"os":"Windows 10","vsync_rate":60.12,"participant_id":"S01"},{"success":true,"timeout":false,"failed_images":[],"failed_audio":[],"failed_video":[],"trial_type":"preload","trial_index":103,"time_elapsed":52057,"internal_node_id":"0.0-13.0-0.0","screen_height":944,"screen_width":2048,"browser":"chrome","browser_version":"103.0.0","mobile":false,"os":"Windows 10","vsync_rate":60.12,"participant_id":"S01"},{"rt":686,"stimulus":"<p><b>Part 10</b></p><p>In this part, one vertical red line will appear in a square.</p><p>Your task is to tell <b>which direction</b> is the red line leaning, as fast as you can, and without making errors.</p><p>Don't get distracted by the black square!</p><p>Press <b>the LEFT or the RIGHT arrow</b> to indicate the <b>direction where the red line is leaning.</b></p><div style='float: center'><img src='utils/stimuli_demo/RodFrame_Demo.png' height='300'></img><p><img src='utils/answer/answer_leftright_keyboard.PNG' height='150'></img></p><p class='small'>In this example, the correct answer is the <b>LEFT arrow</b>.</p></div><p>Are you ready? <b>Press ENTER to start</b></p>","response":"enter","trial_type":"html-keyboard-response","trial_index":104,"time_elapsed":52744,"internal_node_id":"0.0-13.0-1.0","screen_height":944,"screen_width":2048,"browser":"chrome","browser_version":"103.0.0","mobile":false,"os":"Windows 10","vsync_rate":60.12,"participant_id":"S01"},{"rt":null,"stimulus":"<div style=\"font-size:60px;\">+</div>","response":null,"screen":"fixation","trial_type":"html-keyboard-response","trial_index":105,"time_elapsed":53250,"internal_node_id":"0.0-13.0-2.0-0.0","screen_height":944,"screen_width":2048,"browser":"chrome","browser_version":"103.0.0","mobile":false,"os":"Windows 10","vsync_rate":60.12,"participant_id":"S01","trial_duration":0},{"rt":343,"stimulus":"stimuli/RodFrame_str-30.0_diff20.0.png","response":"arrowright","screen":"Trial","block":"RodFrame","correct_response":"arrowright","trial_type":"image-keyboard-response","trial_index":106,"time_elapsed":53594,"internal_node_id":"0.0-13.0-2.0-1.0","screen_height":944,"screen_width":2048,"browser":"chrome","browser_version":"103.0.0","mobile":false,"os":"Windows 10","vsync_rate":60.12,"participant_id":"S01","prestimulus_duration":506,"correct":true,"type":"RodFrame","illusion_strength":-30,"illusion_difference":20,"block_number":10,"trial_number":1},{"rt":null,"stimulus":"<div style=\"font-size:60px;\">+</div>","response":null,"screen":"fixation","trial_type":"html-keyboard-response","trial_index":107,"time_elapsed":53596,"internal_node_id":"0.0-13.0-2.0-0.1","screen_height":944,"screen_width":2048,"browser":"chrome","browser_version":"103.0.0","mobile":false,"os":"Windows 10","vsync_rate":60.12,"participant_id":"S01","trial_duration":0},{"rt":477,"stimulus":"stimuli/RodFrame_str-30.0_diff-20.0.png","response":"arrowright","screen":"Trial","block":"RodFrame","correct_response":"arrowleft","trial_type":"image-keyboard-response","trial_index":108,"time_elapsed":54073,"internal_node_id":"0.0-13.0-2.0-1.1","screen_height":944,"screen_width":2048,"browser":"chrome","browser_version":"103.0.0","mobile":false,"os":"Windows 10","vsync_rate":60.12,"participant_id":"S01","prestimulus_duration":2,"correct":false,"type":"RodFrame","illusion_strength":-30,"illusion_difference":-20,"block_number":10,"trial_number":2},{"rt":null,"stimulus":"<div style=\"font-size:60px;\">+</div>","response":null,"screen":"fixation","trial_type":"html-keyboard-response","trial_index":109,"time_elapsed":54076,"internal_node_id":"0.0-13.0-2.0-0.2","screen_height":944,"screen_width":2048,"browser":"chrome","browser_version":"103.0.0","mobile":false,"os":"Windows 10","vsync_rate":60.12,"participant_id":"S01","trial_duration":0},{"rt":418,"stimulus":"stimuli/RodFrame_str30.0_diff-20.0.png","response":"arrowright","screen":"Trial","block":"RodFrame","correct_response":"arrowleft","trial_type":"image-keyboard-response","trial_index":110,"time_elapsed":54493,"internal_node_id":"0.0-13.0-2.0-1.2","screen_height":944,"screen_width":2048,"browser":"chrome","browser_version":"103.0.0","mobile":false,"os":"Windows 10","vsync_rate":60.12,"participant_id":"S01","prestimulus_duration":3,"correct":false,"type":"RodFrame","illusion_strength":30,"illusion_difference":-20,"block_number":10,"trial_number":3},{"rt":null,"stimulus":"<div style=\"font-size:60px;\">+</div>","response":null,"screen":"fixation","trial_type":"html-keyboard-response","trial_index":111,"time_elapsed":54495,"internal_node_id":"0.0-13.0-2.0-0.3","screen_height":944,"screen_width":2048,"browser":"chrome","browser_version":"103.0.0","mobile":false,"os":"Windows 10","vsync_rate":60.12,"participant_id":"S01","trial_duration":0},{"rt":559,"stimulus":"stimuli/RodFrame_str30.0_diff20.0.png","response":"arrowleft","screen":"Trial","block":"RodFrame","correct_response":"arrowright","trial_type":"image-keyboard-response","trial_index":112,"time_elapsed":55054,"internal_node_id":"0.0-13.0-2.0-1.3","screen_height":944,"screen_width":2048,"browser":"chrome","browser_version":"103.0.0","mobile":false,"os":"Windows 10","vsync_rate":60.12,"participant_id":"S01","prestimulus_duration":2,"correct":false,"type":"RodFrame","illusion_strength":30,"illusion_difference":20,"block_number":10,"trial_number":4},{"rt":582,"stimulus":"<p>Your score for this illusion is <p style=\"color: black; font-size: 48px; font-weight: bold;\">3628</p><hr><p style='color:rgb(76,175,80);'>You performed better than <b>22.84</b>% of the population.</p><hr><p>Can you do better in the next illusion?</p>","response":0,"screen":"block_results","trial_type":"html-button-response","trial_index":113,"time_elapsed":55637,"internal_node_id":"0.0-13.0-3.0","screen_height":944,"screen_width":2048,"browser":"chrome","browser_version":"103.0.0","mobile":false,"os":"Windows 10","vsync_rate":60.12,"participant_id":"S01"},{"success":true,"timeout":false,"failed_images":[],"failed_audio":[],"failed_video":[],"trial_type":"preload","trial_index":114,"time_elapsed":55637,"internal_node_id":"0.0-14.0-0.0","screen_height":944,"screen_width":2048,"browser":"chrome","browser_version":"103.0.0","mobile":false,"os":"Windows 10","vsync_rate":60.12,"participant_id":"S01"},{"rt":451,"stimulus":"<p><b>Part 11</b></p><p>In this part, two vertical grey rectangles will appear side by side.</p><p>Your task is to tell <b>which rectangle is of a lighter color</b>, as fast as you can, and without making errors.</p><p>Don't get distracted by the background color!</p><p>Press <b>the LEFT or the RIGHT arrow</b> to indicate which <b>side has the lighter rectangle.</b></p><div style='float: center'><img src='utils/stimuli_demo/White_Demo.png' height='300'></img><p><img src='utils/answer/answer_leftright_keyboard.PNG' height='150'></img></p><p class='small'>In this example, the correct answer is the <b>LEFT arrow</b>.</p></div><p>Are you ready? <b>Press ENTER to start</b></p>","response":"enter","trial_type":"html-keyboard-response","trial_index":115,"time_elapsed":56089,"internal_node_id":"0.0-14.0-1.0","screen_height":944,"screen_width":2048,"browser":"chrome","browser_version":"103.0.0","mobile":false,"os":"Windows 10","vsync_rate":60.12,"participant_id":"S01"},{"rt":null,"stimulus":"<div style=\"font-size:60px;\">+</div>","response":null,"screen":"fixation","trial_type":"html-keyboard-response","trial_index":116,"time_elapsed":56603,"internal_node_id":"0.0-14.0-2.0-0.0","screen_height":944,"screen_width":2048,"browser":"chrome","browser_version":"103.0.0","mobile":false,"os":"Windows 10","vsync_rate":60.12,"participant_id":"S01","trial_duration":0},{"rt":425,"stimulus":"stimuli/White_str30.0_diff40.0.png","response":"arrowleft","screen":"Trial","block":"White","correct_response":"arrowleft","trial_type":"image-keyboard-response","trial_index":117,"time_elapsed":57028,"internal_node_id":"0.0-14.0-2.0-1.0","screen_height":944,"screen_width":2048,"browser":"chrome","browser_version":"103.0.0","mobile":false,"os":"Windows 10","vsync_rate":60.12,"participant_id":"S01","prestimulus_duration":514,"correct":true,"type":"White","illusion_strength":30,"illusion_difference":40,"block_number":11,"trial_number":1},{"rt":null,"stimulus":"<div style=\"font-size:60px;\">+</div>","response":null,"screen":"fixation","trial_type":"html-keyboard-response","trial_index":118,"time_elapsed":57031,"internal_node_id":"0.0-14.0-2.0-0.1","screen_height":944,"screen_width":2048,"browser":"chrome","browser_version":"103.0.0","mobile":false,"os":"Windows 10","vsync_rate":60.12,"participant_id":"S01","trial_duration":0},{"rt":499,"stimulus":"stimuli/White_str-30.0_diff-40.0.png","response":"arrowleft","screen":"Trial","block":"White","correct_response":"arrowright","trial_type":"image-keyboard-response","trial_index":119,"time_elapsed":57530,"internal_node_id":"0.0-14.0-2.0-1.1","screen_height":944,"screen_width":2048,"browser":"chrome","browser_version":"103.0.0","mobile":false,"os":"Windows 10","vsync_rate":60.12,"participant_id":"S01","prestimulus_duration":3,"correct":false,"type":"White","illusion_strength":-30,"illusion_difference":-40,"block_number":11,"trial_number":2},{"rt":null,"stimulus":"<div style=\"font-size:60px;\">+</div>","response":null,"screen":"fixation","trial_type":"html-keyboard-response","trial_index":120,"time_elapsed":57532,"internal_node_id":"0.0-14.0-2.0-0.2","screen_height":944,"screen_width":2048,"browser":"chrome","browser_version":"103.0.0","mobile":false,"os":"Windows 10","vsync_rate":60.12,"participant_id":"S01","trial_duration":0},{"rt":394,"stimulus":"stimuli/White_str30.0_diff-40.0.png","response":"arrowleft","screen":"Trial","block":"White","correct_response":"arrowright","trial_type":"image-keyboard-response","trial_index":121,"time_elapsed":57927,"internal_node_id":"0.0-14.0-2.0-1.2","screen_height":944,"screen_width":2048,"browser":"chrome","browser_version":"103.0.0","mobile":false,"os":"Windows 10","vsync_rate":60.12,"participant_id":"S01","prestimulus_duration":2,"correct":false,"type":"White","illusion_strength":30,"illusion_difference":-40,"block_number":11,"trial_number":3},{"rt":null,"stimulus":"<div style=\"font-size:60px;\">+</div>","response":null,"screen":"fixation","trial_type":"html-keyboard-response","trial_index":122,"time_elapsed":57929,"internal_node_id":"0.0-14.0-2.0-0.3","screen_height":944,"screen_width":2048,"browser":"chrome","browser_version":"103.0.0","mobile":false,"os":"Windows 10","vsync_rate":60.12,"participant_id":"S01","trial_duration":0},{"rt":428,"stimulus":"stimuli/White_str-30.0_diff40.0.png","response":"arrowleft","screen":"Trial","block":"White","correct_response":"arrowleft","trial_type":"image-keyboard-response","trial_index":123,"time_elapsed":58357,"internal_node_id":"0.0-14.0-2.0-1.3","screen_height":944,"screen_width":2048,"browser":"chrome","browser_version":"103.0.0","mobile":false,"os":"Windows 10","vsync_rate":60.12,"participant_id":"S01","prestimulus_duration":2,"correct":true,"type":"White","illusion_strength":-30,"illusion_difference":40,"block_number":11,"trial_number":4},{"rt":584,"stimulus":"<p>Your score for this illusion is <p style=\"color: black; font-size: 48px; font-weight: bold;\">4218</p><hr><p style='color:rgb(76,175,80);'>You performed better than <b>66.86</b>% of the population.</p><hr><p>Can you do better in the next illusion?</p>","response":0,"screen":"block_results","trial_type":"html-button-response","trial_index":124,"time_elapsed":58942,"internal_node_id":"0.0-14.0-3.0","screen_height":944,"screen_width":2048,"browser":"chrome","browser_version":"103.0.0","mobile":false,"os":"Windows 10","vsync_rate":60.12,"participant_id":"S01"},{"success":true,"timeout":false,"failed_images":[],"failed_audio":[],"failed_video":[],"trial_type":"preload","trial_index":125,"time_elapsed":58942,"internal_node_id":"0.0-15.0-0.0","screen_height":944,"screen_width":2048,"browser":"chrome","browser_version":"103.0.0","mobile":false,"os":"Windows 10","vsync_rate":60.12,"participant_id":"S01"},{"rt":401,"stimulus":"<p><b>Part 12</b></p><p>In this part, two red circles will appear side by side on the screen.</p><p>Your task is to select which <b>red circle is bigger</b> in size as fast as you can, without making errors.</p><p>Don't get distracted by the black outlines around the red circles!</p><p>Press <b>the LEFT or the RIGHT arrow</b> to indicate where is the biggest <b>red circle.</b></p><div style='float: center'><img src='utils/stimuli_demo/Delboeuf_Demo.png' height='300'></img><p><img src='utils/answer/answer_leftright_keyboard.PNG' height='150'></img></p><p class='small'>In this example, the correct answer is the <b>LEFT arrow</b>.</p></div><p>Are you ready? <b>Press ENTER to start</b></p>","response":"enter","trial_type":"html-keyboard-response","trial_index":126,"time_elapsed":59344,"internal_node_id":"0.0-15.0-1.0","screen_height":944,"screen_width":2048,"browser":"chrome","browser_version":"103.0.0","mobile":false,"os":"Windows 10","vsync_rate":60.12,"participant_id":"S01"},{"rt":null,"stimulus":"<div style=\"font-size:60px;\">+</div>","response":null,"screen":"fixation","trial_type":"html-keyboard-response","trial_index":127,"time_elapsed":59862,"internal_node_id":"0.0-15.0-2.0-0.0","screen_height":944,"screen_width":2048,"browser":"chrome","browser_version":"103.0.0","mobile":false,"os":"Windows 10","vsync_rate":60.12,"participant_id":"S01","trial_duration":0},{"rt":586,"stimulus":"stimuli/Delboeuf_str1.0_diff1.0.png","response":"arrowright","screen":"Trial","block":"Delboeuf","correct_response":"arrowleft","trial_type":"image-keyboard-response","trial_index":128,"time_elapsed":60448,"internal_node_id":"0.0-15.0-2.0-1.0","screen_height":944,"screen_width":2048,"browser":"chrome","browser_version":"103.0.0","mobile":false,"os":"Windows 10","vsync_rate":60.12,"participant_id":"S01","prestimulus_duration":518,"correct":false,"type":"Delboeuf","illusion_strength":1,"illusion_difference":1,"block_number":12,"trial_number":1},{"rt":null,"stimulus":"<div style=\"font-size:60px;\">+</div>","response":null,"screen":"fixation","trial_type":"html-keyboard-response","trial_index":129,"time_elapsed":60451,"internal_node_id":"0.0-15.0-2.0-0.1","screen_height":944,"screen_width":2048,"browser":"chrome","browser_version":"103.0.0","mobile":false,"os":"Windows 10","vsync_rate":60.12,"participant_id":"S01","trial_duration":0},{"rt":441,"stimulus":"stimuli/Delboeuf_str1.0_diff-1.0.png","response":"arrowright","screen":"Trial","block":"Delboeuf","correct_response":"arrowright","trial_type":"image-keyboard-response","trial_index":130,"time_elapsed":60892,"internal_node_id":"0.0-15.0-2.0-1.1","screen_height":944,"screen_width":2048,"browser":"chrome","browser_version":"103.0.0","mobile":false,"os":"Windows 10","vsync_rate":60.12,"participant_id":"S01","prestimulus_duration":3,"correct":true,"type":"Delboeuf","illusion_strength":1,"illusion_difference":-1,"block_number":12,"trial_number":2},{"rt":null,"stimulus":"<div style=\"font-size:60px;\">+</div>","response":null,"screen":"fixation","trial_type":"html-keyboard-response","trial_index":131,"time_elapsed":60895,"internal_node_id":"0.0-15.0-2.0-0.2","screen_height":944,"screen_width":2048,"browser":"chrome","browser_version":"103.0.0","mobile":false,"os":"Windows 10","vsync_rate":60.12,"participant_id":"S01","trial_duration":0},{"rt":455,"stimulus":"stimuli/Delboeuf_str-1.0_diff-1.0.png","response":"arrowright","screen":"Trial","block":"Delboeuf","correct_response":"arrowright","trial_type":"image-keyboard-response","trial_index":132,"time_elapsed":61350,"internal_node_id":"0.0-15.0-2.0-1.2","screen_height":944,"screen_width":2048,"browser":"chrome","browser_version":"103.0.0","mobile":false,"os":"Windows 10","vsync_rate":60.12,"participant_id":"S01","prestimulus_duration":3,"correct":true,"type":"Delboeuf","illusion_strength":-1,"illusion_difference":-1,"block_number":12,"trial_number":3},{"rt":null,"stimulus":"<div style=\"font-size:60px;\">+</div>","response":null,"screen":"fixation","trial_type":"html-keyboard-response","trial_index":133,"time_elapsed":61353,"internal_node_id":"0.0-15.0-2.0-0.3","screen_height":944,"screen_width":2048,"browser":"chrome","browser_version":"103.0.0","mobile":false,"os":"Windows 10","vsync_rate":60.12,"participant_id":"S01","trial_duration":0},{"rt":426,"stimulus":"stimuli/Delboeuf_str-1.0_diff1.0.png","response":"arrowright","screen":"Trial","block":"Delboeuf","correct_response":"arrowleft","trial_type":"image-keyboard-response","trial_index":134,"time_elapsed":61779,"internal_node_id":"0.0-15.0-2.0-1.3","screen_height":944,"screen_width":2048,"browser":"chrome","browser_version":"103.0.0","mobile":false,"os":"Windows 10","vsync_rate":60.12,"participant_id":"S01","prestimulus_duration":3,"correct":false,"type":"Delboeuf","illusion_strength":-1,"illusion_difference":1,"block_number":12,"trial_number":4},{"rt":561,"stimulus":"<p>Your score for this illusion is <p style=\"color: black; font-size: 48px; font-weight: bold;\">4116</p><hr><p style='color:rgb(76,175,80);'>You performed better than <b>42.62</b>% of the population.</p><hr><p>Can you do better in the next illusion?</p>","response":0,"screen":"block_results","trial_type":"html-button-response","trial_index":135,"time_elapsed":62341,"internal_node_id":"0.0-15.0-3.0","screen_height":944,"screen_width":2048,"browser":"chrome","browser_version":"103.0.0","mobile":false,"os":"Windows 10","vsync_rate":60.12,"participant_id":"S01"},{"success":true,"timeout":false,"failed_images":[],"failed_audio":[],"failed_video":[],"trial_type":"preload","trial_index":136,"time_elapsed":62341,"internal_node_id":"0.0-16.0-0.0","screen_height":944,"screen_width":2048,"browser":"chrome","browser_version":"103.0.0","mobile":false,"os":"Windows 10","vsync_rate":60.12,"participant_id":"S01"},{"rt":934,"stimulus":"<p><b>Part 13</b></p><p>In this part, two red lines will appear side by side.</p><p>Your task is to tell <b>which line is the longer</b> as fast as you can, and without making errors.</p><p>Don't get distracted by the orientation of the lines!</p><p>Press <b>the LEFT or the RIGHT arrow</b> to indicate which <b>line is the longer one.</b></p><div style='float: center'><img src='utils/stimuli_demo/VerticalHorizontal_Demo.png' height='300'></img><p><img src='utils/answer/answer_leftright_keyboard.PNG' height='150'></img></p><p class='small'>In this example, the correct answer is the <b>LEFT arrow</b>.</p></div><p>Are you ready? <b>Press ENTER to start</b></p>","response":"enter","trial_type":"html-keyboard-response","trial_index":137,"time_elapsed":63276,"internal_node_id":"0.0-16.0-1.0","screen_height":944,"screen_width":2048,"browser":"chrome","browser_version":"103.0.0","mobile":false,"os":"Windows 10","vsync_rate":60.12,"participant_id":"S01"},{"rt":null,"stimulus":"<div style=\"font-size:60px;\">+</div>","response":null,"screen":"fixation","trial_type":"html-keyboard-response","trial_index":138,"time_elapsed":63783,"internal_node_id":"0.0-16.0-2.0-0.0","screen_height":944,"screen_width":2048,"browser":"chrome","browser_version":"103.0.0","mobile":false,"os":"Windows 10","vsync_rate":60.12,"participant_id":"S01","trial_duration":0},{"rt":270,"stimulus":"stimuli/VerticalHorizontal_str-90.0_diff-0.3.png","response":"arrowleft","screen":"Trial","block":"VerticalHorizontal","correct_response":"arrowright","trial_type":"image-keyboard-response","trial_index":139,"time_elapsed":64053,"internal_node_id":"0.0-16.0-2.0-1.0","screen_height":944,"screen_width":2048,"browser":"chrome","browser_version":"103.0.0","mobile":false,"os":"Windows 10","vsync_rate":60.12,"participant_id":"S01","prestimulus_duration":507,"correct":false,"type":"VerticalHorizontal","illusion_strength":-90,"illusion_difference":-0.3,"block_number":13,"trial_number":1},{"rt":null,"stimulus":"<div style=\"font-size:60px;\">+</div>","response":null,"screen":"fixation","trial_type":"html-keyboard-response","trial_index":140,"time_elapsed":64056,"internal_node_id":"0.0-16.0-2.0-0.1","screen_height":944,"screen_width":2048,"browser":"chrome","browser_version":"103.0.0","mobile":false,"os":"Windows 10","vsync_rate":60.12,"participant_id":"S01","trial_duration":0},{"rt":284,"stimulus":"stimuli/VerticalHorizontal_str90.0_diff-0.3.png","response":"arrowright","screen":"Trial","block":"VerticalHorizontal","correct_response":"arrowright","trial_type":"image-keyboard-response","trial_index":141,"time_elapsed":64340,"internal_node_id":"0.0-16.0-2.0-1.1","screen_height":944,"screen_width":2048,"browser":"chrome","browser_version":"103.0.0","mobile":false,"os":"Windows 10","vsync_rate":60.12,"participant_id":"S01","prestimulus_duration":3,"correct":true,"type":"VerticalHorizontal","illusion_strength":90,"illusion_difference":-0.3,"block_number":13,"trial_number":2},{"rt":null,"stimulus":"<div style=\"font-size:60px;\">+</div>","response":null,"screen":"fixation","trial_type":"html-keyboard-response","trial_index":142,"time_elapsed":64342,"internal_node_id":"0.0-16.0-2.0-0.2","screen_height":944,"screen_width":2048,"browser":"chrome","browser_version":"103.0.0","mobile":false,"os":"Windows 10","vsync_rate":60.12,"participant_id":"S01","trial_duration":0},{"rt":299,"stimulus":"stimuli/VerticalHorizontal_str90.0_diff0.3.png","response":"arrowleft","screen":"Trial","block":"VerticalHorizontal","correct_response":"arrowleft","trial_type":"image-keyboard-response","trial_index":143,"time_elapsed":64642,"internal_node_id":"0.0-16.0-2.0-1.2","screen_height":944,"screen_width":2048,"browser":"chrome","browser_version":"103.0.0","mobile":false,"os":"Windows 10","vsync_rate":60.12,"participant_id":"S01","prestimulus_duration":2,"correct":true,"type":"VerticalHorizontal","illusion_strength":90,"illusion_difference":0.3,"block_number":13,"trial_number":3},{"rt":null,"stimulus":"<div style=\"font-size:60px;\">+</div>","response":null,"screen":"fixation","trial_type":"html-keyboard-response","trial_index":144,"time_elapsed":64645,"internal_node_id":"0.0-16.0-2.0-0.3","screen_height":944,"screen_width":2048,"browser":"chrome","browser_version":"103.0.0","mobile":false,"os":"Windows 10","vsync_rate":60.12,"participant_id":"S01","trial_duration":0},{"rt":160,"stimulus":"stimuli/VerticalHorizontal_str-90.0_diff0.3.png","response":"arrowright","screen":"Trial","block":"VerticalHorizontal","correct_response":"arrowleft","trial_type":"image-keyboard-response","trial_index":145,"time_elapsed":64805,"internal_node_id":"0.0-16.0-2.0-1.3","screen_height":944,"screen_width":2048,"browser":"chrome","browser_version":"103.0.0","mobile":false,"os":"Windows 10","vsync_rate":60.12,"participant_id":"S01","prestimulus_duration":3,"correct":false,"type":"VerticalHorizontal","illusion_strength":-90,"illusion_difference":0.3,"block_number":13,"trial_number":4},{"rt":560,"stimulus":"<p>Your score for this illusion is <p style=\"color: black; font-size: 48px; font-weight: bold;\">4085</p><hr><p style='color:rgb(76,175,80);'>You performed better than <b>56.75</b>% of the population.</p><hr><p>Can you do better in the next illusion?</p>","response":0,"screen":"block_results","trial_type":"html-button-response","trial_index":146,"time_elapsed":65365,"internal_node_id":"0.0-16.0-3.0","screen_height":944,"screen_width":2048,"browser":"chrome","browser_version":"103.0.0","mobile":false,"os":"Windows 10","vsync_rate":60.12,"participant_id":"S01"},{"success":true,"timeout":false,"failed_images":[],"failed_audio":[],"failed_video":[],"trial_type":"preload","trial_index":147,"time_elapsed":65373,"internal_node_id":"0.0-17.0-0.0","screen_height":944,"screen_width":2048,"browser":"chrome","browser_version":"103.0.0","mobile":false,"os":"Windows 10","vsync_rate":60.12,"participant_id":"S01"},{"rt":386,"stimulus":"<p><b>Part 14</b></p><p>In this part, two small grey rectangles will appear one above the other.</p><p>Your task is to select which rectangle is <b>lighter</b> as fast as you can, without making errors.</p><p>Don't get distracted by the surrounding background!</p><p>Press <b>the UP or the DOWN arrow</b> to indicate where is the <b>lighter rectangle.</b></p><div style='float: center'><img src='utils/stimuli_demo/Contrast_Demo.png' height='300'></img><p><img src='utils/answer/answer_updown_keyboard.PNG' height='150'></img></p><p class='small'>In this example, the correct answer is the <b>UP arrow</b>.</p></div><p>Are you ready? <b>Press ENTER to start</b></p>","response":"enter","trial_type":"html-keyboard-response","trial_index":148,"time_elapsed":65759,"internal_node_id":"0.0-17.0-1.0","screen_height":944,"screen_width":2048,"browser":"chrome","browser_version":"103.0.0","mobile":false,"os":"Windows 10","vsync_rate":60.12,"participant_id":"S01"},{"rt":null,"stimulus":"<div style=\"font-size:60px;\">+</div>","response":null,"screen":"fixation","trial_type":"html-keyboard-response","trial_index":149,"time_elapsed":66266,"internal_node_id":"0.0-17.0-2.0-0.0","screen_height":944,"screen_width":2048,"browser":"chrome","browser_version":"103.0.0","mobile":false,"os":"Windows 10","vsync_rate":60.12,"participant_id":"S01","trial_duration":0},{"rt":527,"stimulus":"stimuli/Contrast_str50.0_diff-40.0.png","response":"arrowup","screen":"Trial","block":"Contrast","correct_response":"arrowdown","trial_type":"image-keyboard-response","trial_index":150,"time_elapsed":66794,"internal_node_id":"0.0-17.0-2.0-1.0","screen_height":944,"screen_width":2048,"browser":"chrome","browser_version":"103.0.0","mobile":false,"os":"Windows 10","vsync_rate":60.12,"participant_id":"S01","prestimulus_duration":507,"correct":false,"type":"Contrast","illusion_strength":50,"illusion_difference":-40,"block_number":14,"trial_number":1},{"rt":null,"stimulus":"<div style=\"font-size:60px;\">+</div>","response":null,"screen":"fixation","trial_type":"html-keyboard-response","trial_index":151,"time_elapsed":66797,"internal_node_id":"0.0-17.0-2.0-0.1","screen_height":944,"screen_width":2048,"browser":"chrome","browser_version":"103.0.0","mobile":false,"os":"Windows 10","vsync_rate":60.12,"participant_id":"S01","trial_duration":0},{"rt":611,"stimulus":"stimuli/Contrast_str-50.0_diff40.0.png","response":"arrowup","screen":"Trial","block":"Contrast","correct_response":"arrowup","trial_type":"image-keyboard-response","trial_index":152,"time_elapsed":67408,"internal_node_id":"0.0-17.0-2.0-1.1","screen_height":944,"screen_width":2048,"browser":"chrome","browser_version":"103.0.0","mobile":false,"os":"Windows 10","vsync_rate":60.12,"participant_id":"S01","prestimulus_duration":3,"correct":true,"type":"Contrast","illusion_strength":-50,"illusion_difference":40,"block_number":14,"trial_number":2},{"rt":null,"stimulus":"<div style=\"font-size:60px;\">+</div>","response":null,"screen":"fixation","trial_type":"html-keyboard-response","trial_index":153,"time_elapsed":67411,"internal_node_id":"0.0-17.0-2.0-0.2","screen_height":944,"screen_width":2048,"browser":"chrome","browser_version":"103.0.0","mobile":false,"os":"Windows 10","vsync_rate":60.12,"participant_id":"S01","trial_duration":0},{"rt":506,"stimulus":"stimuli/Contrast_str-50.0_diff-40.0.png","response":"arrowup","screen":"Trial","block":"Contrast","correct_response":"arrowdown","trial_type":"image-keyboard-response","trial_index":154,"time_elapsed":67917,"internal_node_id":"0.0-17.0-2.0-1.2","screen_height":944,"screen_width":2048,"browser":"chrome","browser_version":"103.0.0","mobile":false,"os":"Windows 10","vsync_rate":60.12,"participant_id":"S01","prestimulus_duration":3,"correct":false,"type":"Contrast","illusion_strength":-50,"illusion_difference":-40,"block_number":14,"trial_number":3},{"rt":null,"stimulus":"<div style=\"font-size:60px;\">+</div>","response":null,"screen":"fixation","trial_type":"html-keyboard-response","trial_index":155,"time_elapsed":67920,"internal_node_id":"0.0-17.0-2.0-0.3","screen_height":944,"screen_width":2048,"browser":"chrome","browser_version":"103.0.0","mobile":false,"os":"Windows 10","vsync_rate":60.12,"participant_id":"S01","trial_duration":0},{"rt":337,"stimulus":"stimuli/Contrast_str50.0_diff40.0.png","response":"arrowup","screen":"Trial","block":"Contrast","correct_response":"arrowup","trial_type":"image-keyboard-response","trial_index":156,"time_elapsed":68257,"internal_node_id":"0.0-17.0-2.0-1.3","screen_height":944,"screen_width":2048,"browser":"chrome","browser_version":"103.0.0","mobile":false,"os":"Windows 10","vsync_rate":60.12,"participant_id":"S01","prestimulus_duration":3,"correct":true,"type":"Contrast","illusion_strength":50,"illusion_difference":40,"block_number":14,"trial_number":4},{"rt":544,"stimulus":"<p>Your score for this illusion is <p style=\"color: black; font-size: 48px; font-weight: bold;\">3801</p><hr><p style='color:rgb(76,175,80);'>You performed better than <b>34.53</b>% of the population.</p><hr><p>Can you do better in the next illusion?</p>","response":0,"screen":"block_results","trial_type":"html-button-response","trial_index":157,"time_elapsed":68802,"internal_node_id":"0.0-17.0-3.0","screen_height":944,"screen_width":2048,"browser":"chrome","browser_version":"103.0.0","mobile":false,"os":"Windows 10","vsync_rate":60.12,"participant_id":"S01"},{"success":true,"timeout":false,"failed_images":[],"failed_audio":[],"failed_video":[],"trial_type":"preload","trial_index":158,"time_elapsed":68802,"internal_node_id":"0.0-18.0-0.0","screen_height":944,"screen_width":2048,"browser":"chrome","browser_version":"103.0.0","mobile":false,"os":"Windows 10","vsync_rate":60.12,"participant_id":"S01"},{"rt":852,"stimulus":"<p><b>Part 15</b></p><p>In this part, two horizontal red lines will appear one above the other.</p><p>Your task is to select which <b>line is longer</b> in size as fast as you can, without making errors.</p><p>Don't get distracted by the surrounding black arrows at the end of the red lines!</p><p>Press <b>the UP or the DOWN arrow</b> to indicate where is the longest <b>red line.</b></p><div style='float: center'><img src='utils/stimuli_demo/MullerLyer_Demo.png' height='300'></img><p><img src='utils/answer/answer_updown_keyboard.PNG' height='150'></img></p><p class='small'>In this example, the correct answer is the <b>UP arrow</b>.</p></div><p>Are you ready? <b>Press ENTER to start</b></p>","response":"enter","trial_type":"html-keyboard-response","trial_index":159,"time_elapsed":69655,"internal_node_id":"0.0-18.0-1.0","screen_height":944,"screen_width":2048,"browser":"chrome","browser_version":"103.0.0","mobile":false,"os":"Windows 10","vsync_rate":60.12,"participant_id":"S01"},{"rt":null,"stimulus":"<div style=\"font-size:60px;\">+</div>","response":null,"screen":"fixation","trial_type":"html-keyboard-response","trial_index":160,"time_elapsed":70169,"internal_node_id":"0.0-18.0-2.0-0.0","screen_height":944,"screen_width":2048,"browser":"chrome","browser_version":"103.0.0","mobile":false,"os":"Windows 10","vsync_rate":60.12,"participant_id":"S01","trial_duration":0},{"rt":705,"stimulus":"stimuli/MullerLyer_str-50.0_diff0.3.png","response":"arrowup","screen":"Trial","block":"MullerLyer","correct_response":"arrowup","trial_type":"image-keyboard-response","trial_index":161,"time_elapsed":70874,"internal_node_id":"0.0-18.0-2.0-1.0","screen_height":944,"screen_width":2048,"browser":"chrome","browser_version":"103.0.0","mobile":false,"os":"Windows 10","vsync_rate":60.12,"participant_id":"S01","prestimulus_duration":514,"correct":true,"type":"MullerLyer","illusion_strength":-50,"illusion_difference":0.3,"block_number":15,"trial_number":1},{"rt":null,"stimulus":"<div style=\"font-size:60px;\">+</div>","response":null,"screen":"fixation","trial_type":"html-keyboard-response","trial_index":162,"time_elapsed":70876,"internal_node_id":"0.0-18.0-2.0-0.1","screen_height":944,"screen_width":2048,"browser":"chrome","browser_version":"103.0.0","mobile":false,"os":"Windows 10","vsync_rate":60.12,"participant_id":"S01","trial_duration":0},{"rt":283,"stimulus":"stimuli/MullerLyer_str50.0_diff0.3.png","response":"arrowdown","screen":"Trial","block":"MullerLyer","correct_response":"arrowup","trial_type":"image-keyboard-response","trial_index":163,"time_elapsed":71159,"internal_node_id":"0.0-18.0-2.0-1.1","screen_height":944,"screen_width":2048,"browser":"chrome","browser_version":"103.0.0","mobile":false,"os":"Windows 10","vsync_rate":60.12,"participant_id":"S01","prestimulus_duration":2,"correct":false,"type":"MullerLyer","illusion_strength":50,"illusion_difference":0.3,"block_number":15,"trial_number":2},{"rt":null,"stimulus":"<div style=\"font-size:60px;\">+</div>","response":null,"screen":"fixation","trial_type":"html-keyboard-response","trial_index":164,"time_elapsed":71161,"internal_node_id":"0.0-18.0-2.0-0.2","screen_height":944,"screen_width":2048,"browser":"chrome","browser_version":"103.0.0","mobile":false,"os":"Windows 10","vsync_rate":60.12,"participant_id":"S01","trial_duration":0},{"rt":302,"stimulus":"stimuli/MullerLyer_str50.0_diff-0.3.png","response":"arrowup","screen":"Trial","block":"MullerLyer","correct_response":"arrowdown","trial_type":"image-keyboard-response","trial_index":165,"time_elapsed":71463,"internal_node_id":"0.0-18.0-2.0-1.2","screen_height":944,"screen_width":2048,"browser":"chrome","browser_version":"103.0.0","mobile":false,"os":"Windows 10","vsync_rate":60.12,"participant_id":"S01","prestimulus_duration":2,"correct":false,"type":"MullerLyer","illusion_strength":50,"illusion_difference":-0.3,"block_number":15,"trial_number":3},{"rt":null,"stimulus":"<div style=\"font-size:60px;\">+</div>","response":null,"screen":"fixation","trial_type":"html-keyboard-response","trial_index":166,"time_elapsed":71465,"internal_node_id":"0.0-18.0-2.0-0.3","screen_height":944,"screen_width":2048,"browser":"chrome","browser_version":"103.0.0","mobile":false,"os":"Windows 10","vsync_rate":60.12,"participant_id":"S01","trial_duration":0},{"rt":136,"stimulus":"stimuli/MullerLyer_str-50.0_diff-0.3.png","response":"arrowdown","screen":"Trial","block":"MullerLyer","correct_response":"arrowdown","trial_type":"image-keyboard-response","trial_index":167,"time_elapsed":71608,"internal_node_id":"0.0-18.0-2.0-1.3","screen_height":944,"screen_width":2048,"browser":"chrome","browser_version":"103.0.0","mobile":false,"os":"Windows 10","vsync_rate":60.12,"participant_id":"S01","prestimulus_duration":2,"correct":true,"type":"MullerLyer","illusion_strength":-50,"illusion_difference":-0.3,"block_number":15,"trial_number":4},{"rt":537,"stimulus":"<p>Your score for this illusion is <p style=\"color: black; font-size: 48px; font-weight: bold;\">3973</p><hr><p style='color:rgb(76,175,80);'>You performed better than <b>58.36</b>% of the population.</p><hr><p>Can you do better in the next illusion?</p>","response":0,"screen":"block_results","trial_type":"html-button-response","trial_index":168,"time_elapsed":72145,"internal_node_id":"0.0-18.0-3.0","screen_height":944,"screen_width":2048,"browser":"chrome","browser_version":"103.0.0","mobile":false,"os":"Windows 10","vsync_rate":60.12,"participant_id":"S01"},{"success":true,"timeout":false,"failed_images":[],"failed_audio":[],"failed_video":[],"trial_type":"preload","trial_index":169,"time_elapsed":72146,"internal_node_id":"0.0-19.0-0.0","screen_height":944,"screen_width":2048,"browser":"chrome","browser_version":"103.0.0","mobile":false,"os":"Windows 10","vsync_rate":60.12,"participant_id":"S01"},{"rt":495,"stimulus":"<p><b>Part 16</b></p><p>In this part, two horizontal red lines will appear one above the other.</p><p>Your task is to select which <b>line is longer</b> in size as fast as you can, without making errors.</p><p>Don't get distracted by the surrounding black lines!</p><p>Press <b>the UP or the DOWN arrow</b> to indicate where is the longest <b>red line.</b></p><div style='float: center'><img src='utils/stimuli_demo/Ponzo_Demo.png' height='300'></img><p><img src='utils/answer/answer_updown_keyboard.PNG' height='150'></img></p><p class='small'>In this example, the correct answer is the <b>UP arrow</b>.</p></div><p>Are you ready? <b>Press ENTER to start</b></p>","response":"enter","trial_type":"html-keyboard-response","trial_index":170,"time_elapsed":72641,"internal_node_id":"0.0-19.0-1.0","screen_height":944,"screen_width":2048,"browser":"chrome","browser_version":"103.0.0","mobile":false,"os":"Windows 10","vsync_rate":60.12,"participant_id":"S01"},{"rt":null,"stimulus":"<div style=\"font-size:60px;\">+</div>","response":null,"screen":"fixation","trial_type":"html-keyboard-response","trial_index":171,"time_elapsed":73144,"internal_node_id":"0.0-19.0-2.0-0.0","screen_height":944,"screen_width":2048,"browser":"chrome","browser_version":"103.0.0","mobile":false,"os":"Windows 10","vsync_rate":60.12,"participant_id":"S01","trial_duration":0},{"rt":212,"stimulus":"stimuli/Ponzo_str-20.0_diff0.3.png","response":"arrowup","screen":"Trial","block":"Ponzo","correct_response":"arrowup","trial_type":"image-keyboard-response","trial_index":172,"time_elapsed":73357,"internal_node_id":"0.0-19.0-2.0-1.0","screen_height":944,"screen_width":2048,"browser":"chrome","browser_version":"103.0.0","mobile":false,"os":"Windows 10","vsync_rate":60.12,"participant_id":"S01","prestimulus_duration":503,"correct":true,"type":"Ponzo","illusion_strength":-20,"illusion_difference":0.3,"block_number":16,"trial_number":1},{"rt":null,"stimulus":"<div style=\"font-size:60px;\">+</div>","response":null,"screen":"fixation","trial_type":"html-keyboard-response","trial_index":173,"time_elapsed":73359,"internal_node_id":"0.0-19.0-2.0-0.1","screen_height":944,"screen_width":2048,"browser":"chrome","browser_version":"103.0.0","mobile":false,"os":"Windows 10","vsync_rate":60.12,"participant_id":"S01","trial_duration":0},{"rt":195,"stimulus":"stimuli/Ponzo_str20.0_diff0.3.png","response":"arrowdown","screen":"Trial","block":"Ponzo","correct_response":"arrowup","trial_type":"image-keyboard-response","trial_index":174,"time_elapsed":73554,"internal_node_id":"0.0-19.0-2.0-1.1","screen_height":944,"screen_width":2048,"browser":"chrome","browser_version":"103.0.0","mobile":false,"os":"Windows 10","vsync_rate":60.12,"participant_id":"S01","prestimulus_duration":2,"correct":false,"type":"Ponzo","illusion_strength":20,"illusion_difference":0.3,"block_number":16,"trial_number":2},{"rt":null,"stimulus":"<div style=\"font-size:60px;\">+</div>","response":null,"screen":"fixation","trial_type":"html-keyboard-response","trial_index":175,"time_elapsed":73557,"internal_node_id":"0.0-19.0-2.0-0.2","screen_height":944,"screen_width":2048,"browser":"chrome","browser_version":"103.0.0","mobile":false,"os":"Windows 10","vsync_rate":60.12,"participant_id":"S01","trial_duration":0},{"rt":192,"stimulus":"stimuli/Ponzo_str-20.0_diff-0.3.png","response":"arrowup","screen":"Trial","block":"Ponzo","correct_response":"arrowdown","trial_type":"image-keyboard-response","trial_index":176,"time_elapsed":73750,"internal_node_id":"0.0-19.0-2.0-1.2","screen_height":944,"screen_width":2048,"browser":"chrome","browser_version":"103.0.0","mobile":false,"os":"Windows 10","vsync_rate":60.12,"participant_id":"S01","prestimulus_duration":3,"correct":false,"type":"Ponzo","illusion_strength":-20,"illusion_difference":-0.3,"block_number":16,"trial_number":3},{"rt":null,"stimulus":"<div style=\"font-size:60px;\">+</div>","response":null,"screen":"fixation","trial_type":"html-keyboard-response","trial_index":177,"time_elapsed":73753,"internal_node_id":"0.0-19.0-2.0-0.3","screen_height":944,"screen_width":2048,"browser":"chrome","browser_version":"103.0.0","mobile":false,"os":"Windows 10","vsync_rate":60.12,"participant_id":"S01","trial_duration":0},{"rt":110,"stimulus":"stimuli/Ponzo_str20.0_diff-0.3.png","response":"arrowdown","screen":"Trial","block":"Ponzo","correct_response":"arrowdown","trial_type":"image-keyboard-response","trial_index":178,"time_elapsed":73863,"internal_node_id":"0.0-19.0-2.0-1.3","screen_height":944,"screen_width":2048,"browser":"chrome","browser_version":"103.0.0","mobile":false,"os":"Windows 10","vsync_rate":60.12,"participant_id":"S01","prestimulus_duration":3,"correct":true,"type":"Ponzo","illusion_strength":20,"illusion_difference":-0.3,"block_number":16,"trial_number":4},{"rt":556,"stimulus":"<p>Your score for this illusion is <p style=\"color: black; font-size: 48px; font-weight: bold;\">4368</p><hr><p style='color:rgb(76,175,80);'>You performed better than <b>71.09</b>% of the population.</p><hr><p>Can you do better in the next illusion?</p>","response":0,"screen":"block_results","trial_type":"html-button-response","trial_index":179,"time_elapsed":74420,"internal_node_id":"0.0-19.0-3.0","screen_height":944,"screen_width":2048,"browser":"chrome","browser_version":"103.0.0","mobile":false,"os":"Windows 10","vsync_rate":60.12,"participant_id":"S01"},{"success":true,"timeout":false,"failed_images":[],"failed_audio":[],"failed_video":[],"trial_type":"preload","trial_index":180,"time_elapsed":74420,"internal_node_id":"0.0-20.0-0.0","screen_height":944,"screen_width":2048,"browser":"chrome","browser_version":"103.0.0","mobile":false,"os":"Windows 10","vsync_rate":60.12,"participant_id":"S01"},{"rt":482,"stimulus":"<p><b>Part 17</b></p><p>In this part, two red circles will appear side by side on the screen.</p><p>Your task is to select which <b>red circle is bigger</b> in size as fast as you can, without making errors.</p><p>Don't get distracted by the surrounding black circles around the red circles!</p><p>Press <b>the LEFT or the RIGHT arrow</b> to indicate where is the biggest <b>red circle.</b></p><div style='float: center'><img src='utils/stimuli_demo/Ebbinghaus_Demo.png' height='300'></img><p><img src='utils/answer/answer_leftright_keyboard.PNG' height='150'></img></p><p class='small'>In this example, the correct answer is the <b>LEFT arrow</b>.</p></div><p>Are you ready? <b>Press ENTER to start</b></p>","response":"enter","trial_type":"html-keyboard-response","trial_index":181,"time_elapsed":74903,"internal_node_id":"0.0-20.0-1.0","screen_height":944,"screen_width":2048,"browser":"chrome","browser_version":"103.0.0","mobile":false,"os":"Windows 10","vsync_rate":60.12,"participant_id":"S01"},{"rt":null,"stimulus":"<div style=\"font-size:60px;\">+</div>","response":null,"screen":"fixation","trial_type":"html-keyboard-response","trial_index":182,"time_elapsed":75407,"internal_node_id":"0.0-20.0-2.0-0.0","screen_height":944,"screen_width":2048,"browser":"chrome","browser_version":"103.0.0","mobile":false,"os":"Windows 10","vsync_rate":60.12,"participant_id":"S01","trial_duration":0},{"rt":194,"stimulus":"stimuli/Ebbinghaus_str1.0_diff-1.0.png","response":"arrowleft","screen":"Trial","block":"Ebbinghaus","correct_response":"arrowright","trial_type":"image-keyboard-response","trial_index":183,"time_elapsed":75601,"internal_node_id":"0.0-20.0-2.0-1.0","screen_height":944,"screen_width":2048,"browser":"chrome","browser_version":"103.0.0","mobile":false,"os":"Windows 10","vsync_rate":60.12,"participant_id":"S01","prestimulus_duration":504,"correct":false,"type":"Ebbinghaus","illusion_strength":1,"illusion_difference":-1,"block_number":17,"trial_number":1},{"rt":null,"stimulus":"<div style=\"font-size:60px;\">+</div>","response":null,"screen":"fixation","trial_type":"html-keyboard-response","trial_index":184,"time_elapsed":75604,"internal_node_id":"0.0-20.0-2.0-0.1","screen_height":944,"screen_width":2048,"browser":"chrome","browser_version":"103.0.0","mobile":false,"os":"Windows 10","vsync_rate":60.12,"participant_id":"S01","trial_duration":0},{"rt":143,"stimulus":"stimuli/Ebbinghaus_str-1.0_diff1.0.png","response":"arrowright","screen":"Trial","block":"Ebbinghaus","correct_response":"arrowleft","trial_type":"image-keyboard-response","trial_index":185,"time_elapsed":75754,"internal_node_id":"0.0-20.0-2.0-1.1","screen_height":944,"screen_width":2048,"browser":"chrome","browser_version":"103.0.0","mobile":false,"os":"Windows 10","vsync_rate":60.12,"participant_id":"S01","prestimulus_duration":3,"correct":false,"type":"Ebbinghaus","illusion_strength":-1,"illusion_difference":1,"block_number":17,"trial_number":2},{"rt":null,"stimulus":"<div style=\"font-size:60px;\">+</div>","response":null,"screen":"fixation","trial_type":"html-keyboard-response","trial_index":186,"time_elapsed":75757,"internal_node_id":"0.0-20.0-2.0-0.2","screen_height":944,"screen_width":2048,"browser":"chrome","browser_version":"103.0.0","mobile":false,"os":"Windows 10","vsync_rate":60.12,"participant_id":"S01","trial_duration":0},{"rt":172,"stimulus":"stimuli/Ebbinghaus_str-1.0_diff-1.0.png","response":"arrowleft","screen":"Trial","block":"Ebbinghaus","correct_response":"arrowright","trial_type":"image-keyboard-response","trial_index":187,"time_elapsed":75929,"internal_node_id":"0.0-20.0-2.0-1.2","screen_height":944,"screen_width":2048,"browser":"chrome","browser_version":"103.0.0","mobile":false,"os":"Windows 10","vsync_rate":60.12,"participant_id":"S01","prestimulus_duration":3,"correct":false,"type":"Ebbinghaus","illusion_strength":-1,"illusion_difference":-1,"block_number":17,"trial_number":3},{"rt":null,"stimulus":"<div style=\"font-size:60px;\">+</div>","response":null,"screen":"fixation","trial_type":"html-keyboard-response","trial_index":188,"time_elapsed":75932,"internal_node_id":"0.0-20.0-2.0-0.3","screen_height":944,"screen_width":2048,"browser":"chrome","browser_version":"103.0.0","mobile":false,"os":"Windows 10","vsync_rate":60.12,"participant_id":"S01","trial_duration":0},{"rt":80,"stimulus":"stimuli/Ebbinghaus_str1.0_diff1.0.png","response":"arrowright","screen":"Trial","block":"Ebbinghaus","correct_response":"arrowleft","trial_type":"image-keyboard-response","trial_index":189,"time_elapsed":76012,"internal_node_id":"0.0-20.0-2.0-1.3","screen_height":944,"screen_width":2048,"browser":"chrome","browser_version":"103.0.0","mobile":false,"os":"Windows 10","vsync_rate":60.12,"participant_id":"S01","prestimulus_duration":3,"correct":false,"type":"Ebbinghaus","illusion_strength":1,"illusion_difference":1,"block_number":17,"trial_number":4},{"rt":529,"stimu