[{"success":true,"trial_type":"fullscreen","trial_index":0,"time_elapsed":1045,"internal_node_id":"0.0-0.0","screen_height":1002,"screen_width":2048,"browser":"chrome","browser_version":"103.0.0","mobile":false,"os":"Windows 10","vsync_rate":59.96,"participant_id":"S00"},{"width":2048,"height":1002,"webaudio":true,"browser":"chrome","browser_version":"103.0.0","mobile":false,"os":"Windows 10","fullscreen":true,"vsync_rate":59.96,"webcam":true,"microphone":true,"screen":"browser_info","trial_type":"browser-check","trial_index":1,"time_elapsed":2058,"internal_node_id":"0.0-1.0","screen_height":1002,"screen_width":2048,"participant_id":"S00"},{"rt":2526,"response":{"Participant_ID":"S00"},"screen":"participant_info","version":"1.0","date":"12/07/2022","time":"08:21:48","trial_type":"survey-text","trial_index":2,"time_elapsed":4587,"internal_node_id":"0.0-2.0","screen_height":1002,"screen_width":2048,"browser":"chrome","browser_version":"103.0.0","mobile":false,"os":"Windows 10","vsync_rate":59.96,"participant_id":"S00"},{"rt":1597,"stimulus":"<p><b>The Illusion Game</b></p><p>In this reaction-time game, you will need to be <b>as fast as possible</b> and make correct responses by resisting different visual illusions.</p><p>We will show you examples of each illusion before each block.</p><p>Remember, your goal is to be as <b>fast</b> and <b>accurate</b> as possible. Good luck!</p>","response":0,"screen":"general_instructions","trial_type":"html-button-response","trial_index":3,"time_elapsed":6185,"internal_node_id":"0.0-3.0","screen_height":1002,"screen_width":2048,"browser":"chrome","browser_version":"103.0.0","mobile":false,"os":"Windows 10","vsync_rate":59.96,"participant_id":"S00"},{"success":true,"timeout":false,"failed_images":[],"failed_audio":[],"failed_video":[],"trial_type":"preload","trial_index":4,"time_elapsed":6186,"internal_node_id":"0.0-4.0-0.0","screen_height":1002,"screen_width":2048,"browser":"chrome","browser_version":"103.0.0","mobile":false,"os":"Windows 10","vsync_rate":59.96,"participant_id":"S00"},{"rt":1181,"stimulus":"<p><b>Part 1</b></p><p>In this part, two red circles will appear side by side on the screen.</p><p>Your task is to select which <b>red circle is bigger</b> in size as fast as you can, without making errors.</p><p>Don't get distracted by the black outlines around the red circles!</p><p>Press <b>the left or the right arrow</b> to indicate where is the biggest <b>red circle.</b></p><div style='float: center'><img src='utils/stimuli_demo/Delboeuf_Demo.png' height='300'></img><p><img src='utils/answer/answer_leftright_keyboard.PNG' height='150'></img></p><p class='small'>In this example, the correct answer is the <b>left arrow</b>.</p></div><p>Are you ready? <b>Press ENTER to start</b></p>","response":"enter","trial_type":"html-keyboard-response","trial_index":5,"time_elapsed":7368,"internal_node_id":"0.0-4.0-1.0","screen_height":1002,"screen_width":2048,"browser":"chrome","browser_version":"103.0.0","mobile":false,"os":"Windows 10","vsync_rate":59.96,"participant_id":"S00"},{"rt":null,"stimulus":"<div style=\"font-size:60px;\">+</div>","response":null,"screen":"fixation","trial_type":"html-keyboard-response","trial_index":6,"time_elapsed":8479,"internal_node_id":"0.0-4.0-2.0-0.0","screen_height":1002,"screen_width":2048,"browser":"chrome","browser_version":"103.0.0","mobile":false,"os":"Windows 10","vsync_rate":59.96,"participant_id":"S00","trial_duration":599},{"rt":494,"stimulus":"stimuli/Delboeuf_str0.33_diff0.33.png","response":"arrowright","screen":"Trial","block":"Delboeuf","correct_response":"arrowleft","trial_type":"image-keyboard-response","trial_index":7,"time_elapsed":8974,"internal_node_id":"0.0-4.0-2.0-1.0","screen_height":1002,"screen_width":2048,"browser":"chrome","browser_version":"103.0.0","mobile":false,"os":"Windows 10","vsync_rate":59.96,"participant_id":"S00","prestimulus_duration":1111,"correct":false,"type":"Delboeuf","illusion_strength":0.33333333333333326,"illusion_difference":0.33333333333333326,"block_number":1,"trial_number":1},{"rt":null,"stimulus":"<div style=\"font-size:60px;\">+</div>","response":null,"screen":"fixation","trial_type":"html-keyboard-response","trial_index":8,"time_elapsed":9713,"internal_node_id":"0.0-4.0-2.0-0.1","screen_height":1002,"screen_width":2048,"browser":"chrome","browser_version":"103.0.0","mobile":false,"os":"Windows 10","vsync_rate":59.96,"participant_id":"S00","trial_duration":727},{"rt":453,"stimulus":"stimuli/Delboeuf_str-0.33_diff-1.0.png","response":"arrowright","screen":"Trial","block":"Delboeuf","correct_response":"arrowright","trial_type":"image-keyboard-response","trial_index":9,"time_elapsed":10167,"internal_node_id":"0.0-4.0-2.0-1.1","screen_height":1002,"screen_width":2048,"browser":"chrome","browser_version":"103.0.0","mobile":false,"os":"Windows 10","vsync_rate":59.96,"participant_id":"S00","prestimulus_duration":739,"correct":true,"type":"Delboeuf","illusion_strength":-0.33333333333333337,"illusion_difference":-1,"block_number":1,"trial_number":2},{"rt":null,"stimulus":"<div style=\"font-size:60px;\">+</div>","response":null,"screen":"fixation","trial_type":"html-keyboard-response","trial_index":10,"time_elapsed":10728,"internal_node_id":"0.0-4.0-2.0-0.2","screen_height":1002,"screen_width":2048,"browser":"chrome","browser_version":"103.0.0","mobile":false,"os":"Windows 10","vsync_rate":59.96,"participant_id":"S00","trial_duration":559},{"rt":401,"stimulus":"stimuli/Delboeuf_str0.33_diff-1.0.png","response":"arrowright","screen":"Trial","block":"Delboeuf","correct_response":"arrowright","trial_type":"image-keyboard-response","trial_index":11,"time_elapsed":11129,"internal_node_id":"0.0-4.0-2.0-1.2","screen_height":1002,"screen_width":2048,"browser":"chrome","browser_version":"103.0.0","mobile":false,"os":"Windows 10","vsync_rate":59.96,"participant_id":"S00","prestimulus_duration":561,"correct":true,"type":"Delboeuf","illusion_strength":0.33333333333333326,"illusion_difference":-1,"block_number":1,"trial_number":3},{"rt":null,"stimulus":"<div style=\"font-size:60px;\">+</div>","response":null,"screen":"fixation","trial_type":"html-keyboard-response","trial_index":12,"time_elapsed":11724,"internal_node_id":"0.0-4.0-2.0-0.3","screen_height":1002,"screen_width":2048,"browser":"chrome","browser_version":"103.0.0","mobile":false,"os":"Windows 10","vsync_rate":59.96,"participant_id":"S00","trial_duration":582},{"rt":417,"stimulus":"stimuli/Delboeuf_str-1.0_diff1.0.png","response":"arrowleft","screen":"Trial","block":"Delboeuf","correct_response":"arrowleft","trial_type":"image-keyboard-response","trial_index":13,"time_elapsed":12141,"internal_node_id":"0.0-4.0-2.0-1.3","screen_height":1002,"screen_width":2048,"browser":"chrome","browser_version":"103.0.0","mobile":false,"os":"Windows 10","vsync_rate":59.96,"participant_id":"S00","prestimulus_duration":595,"correct":true,"type":"Delboeuf","illusion_strength":-1,"illusion_difference":1,"block_number":1,"trial_number":4},{"rt":null,"stimulus":"<div style=\"font-size:60px;\">+</div>","response":null,"screen":"fixation","trial_type":"html-keyboard-response","trial_index":14,"time_elapsed":12660,"internal_node_id":"0.0-4.0-2.0-0.4","screen_height":1002,"screen_width":2048,"browser":"chrome","browser_version":"103.0.0","mobile":false,"os":"Windows 10","vsync_rate":59.96,"participant_id":"S00","trial_duration":507},{"rt":554,"stimulus":"stimuli/Delboeuf_str0.33_diff1.0.png","response":"arrowright","screen":"Trial","block":"Delboeuf","correct_response":"arrowleft","trial_type":"image-keyboard-response","trial_index":15,"time_elapsed":13214,"internal_node_id":"0.0-4.0-2.0-1.4","screen_height":1002,"screen_width":2048,"browser":"chrome","browser_version":"103.0.0","mobile":false,"os":"Windows 10","vsync_rate":59.96,"participant_id":"S00","prestimulus_duration":519,"correct":false,"type":"Delboeuf","illusion_strength":0.33333333333333326,"illusion_difference":1,"block_number":1,"trial_number":5},{"rt":null,"stimulus":"<div style=\"font-size:60px;\">+</div>","response":null,"screen":"fixation","trial_type":"html-keyboard-response","trial_index":16,"time_elapsed":13529,"internal_node_id":"0.0-4.0-2.0-0.5","screen_height":1002,"screen_width":2048,"browser":"chrome","browser_version":"103.0.0","mobile":false,"os":"Windows 10","vsync_rate":59.96,"participant_id":"S00","trial_duration":301},{"rt":494,"stimulus":"stimuli/Delboeuf_str-0.33_diff1.0.png","response":"arrowleft","screen":"Trial","block":"Delboeuf","correct_response":"arrowleft","trial_type":"image-keyboard-response","trial_index":17,"time_elapsed":14024,"internal_node_id":"0.0-4.0-2.0-1.5","screen_height":1002,"screen_width":2048,"browser":"chrome","browser_version":"103.0.0","mobile":false,"os":"Windows 10","vsync_rate":59.96,"participant_id":"S00","prestimulus_duration":315,"correct":true,"type":"Delboeuf","illusion_strength":-0.33333333333333337,"illusion_difference":1,"block_number":1,"trial_number":6},{"rt":null,"stimulus":"<div style=\"font-size:60px;\">+</div>","response":null,"screen":"fixation","trial_type":"html-keyboard-response","trial_index":18,"time_elapsed":14499,"internal_node_id":"0.0-4.0-2.0-0.6","screen_height":1002,"screen_width":2048,"browser":"chrome","browser_version":"103.0.0","mobile":false,"os":"Windows 10","vsync_rate":59.96,"participant_id":"S00","trial_duration":467},{"rt":649,"stimulus":"stimuli/Delboeuf_str0.33_diff-0.33.png","response":"arrowleft","screen":"Trial","block":"Delboeuf","correct_response":"arrowright","trial_type":"image-keyboard-response","trial_index":19,"time_elapsed":15148,"internal_node_id":"0.0-4.0-2.0-1.6","screen_height":1002,"screen_width":2048,"browser":"chrome","browser_version":"103.0.0","mobile":false,"os":"Windows 10","vsync_rate":59.96,"participant_id":"S00","prestimulus_duration":475,"correct":false,"type":"Delboeuf","illusion_strength":0.33333333333333326,"illusion_difference":-0.33333333333333337,"block_number":1,"trial_number":7},{"rt":null,"stimulus":"<div style=\"font-size:60px;\">+</div>","response":null,"screen":"fixation","trial_type":"html-keyboard-response","trial_index":20,"time_elapsed":15575,"internal_node_id":"0.0-4.0-2.0-0.7","screen_height":1002,"screen_width":2048,"browser":"chrome","browser_version":"103.0.0","mobile":false,"os":"Windows 10","vsync_rate":59.96,"participant_id":"S00","trial_duration":422},{"rt":511,"stimulus":"stimuli/Delboeuf_str1.0_diff0.33.png","response":"arrowright","screen":"Trial","block":"Delboeuf","correct_response":"arrowleft","trial_type":"image-keyboard-response","trial_index":21,"time_elapsed":16087,"internal_node_id":"0.0-4.0-2.0-1.7","screen_height":1002,"screen_width":2048,"browser":"chrome","browser_version":"103.0.0","mobile":false,"os":"Windows 10","vsync_rate":59.96,"participant_id":"S00","prestimulus_duration":427,"correct":false,"type":"Delboeuf","illusion_strength":1,"illusion_difference":0.33333333333333326,"block_number":1,"trial_number":8},{"rt":null,"stimulus":"<div style=\"font-size:60px;\">+</div>","response":null,"screen":"fixation","trial_type":"html-keyboard-response","trial_index":22,"time_elapsed":16838,"internal_node_id":"0.0-4.0-2.0-0.8","screen_height":1002,"screen_width":2048,"browser":"chrome","browser_version":"103.0.0","mobile":false,"os":"Windows 10","vsync_rate":59.96,"participant_id":"S00","trial_duration":748},{"rt":507,"stimulus":"stimuli/Delboeuf_str1.0_diff-0.33.png","response":"arrowleft","screen":"Trial","block":"Delboeuf","correct_response":"arrowright","trial_type":"image-keyboard-response","trial_index":23,"time_elapsed":17346,"internal_node_id":"0.0-4.0-2.0-1.8","screen_height":1002,"screen_width":2048,"browser":"chrome","browser_version":"103.0.0","mobile":false,"os":"Windows 10","vsync_rate":59.96,"participant_id":"S00","prestimulus_duration":751,"correct":false,"type":"Delboeuf","illusion_strength":1,"illusion_difference":-0.33333333333333337,"block_number":1,"trial_number":9},{"rt":null,"stimulus":"<div style=\"font-size:60px;\">+</div>","response":null,"screen":"fixation","trial_type":"html-keyboard-response","trial_index":24,"time_elapsed":18028,"internal_node_id":"0.0-4.0-2.0-0.9","screen_height":1002,"screen_width":2048,"browser":"chrome","browser_version":"103.0.0","mobile":false,"os":"Windows 10","vsync_rate":59.96,"participant_id":"S00","trial_duration":666},{"rt":373,"stimulus":"stimuli/Delboeuf_str-1.0_diff-1.0.png","response":"arrowright","screen":"Trial","block":"Delboeuf","correct_response":"arrowright","trial_type":"image-keyboard-response","trial_index":25,"time_elapsed":18402,"internal_node_id":"0.0-4.0-2.0-1.9","screen_height":1002,"screen_width":2048,"browser":"chrome","browser_version":"103.0.0","mobile":false,"os":"Windows 10","vsync_rate":59.96,"participant_id":"S00","prestimulus_duration":682,"correct":true,"type":"Delboeuf","illusion_strength":-1,"illusion_difference":-1,"block_number":1,"trial_number":10},{"rt":null,"stimulus":"<div style=\"font-size:60px;\">+</div>","response":null,"screen":"fixation","trial_type":"html-keyboard-response","trial_index":26,"time_elapsed":18774,"internal_node_id":"0.0-4.0-2.0-0.10","screen_height":1002,"screen_width":2048,"browser":"chrome","browser_version":"103.0.0","mobile":false,"os":"Windows 10","vsync_rate":59.96,"participant_id":"S00","trial_duration":371},{"rt":432,"stimulus":"stimuli/Delboeuf_str-0.33_diff-0.33.png","response":"arrowright","screen":"Trial","block":"Delboeuf","correct_response":"arrowright","trial_type":"image-keyboard-response","trial_index":27,"time_elapsed":19207,"internal_node_id":"0.0-4.0-2.0-1.10","screen_height":1002,"screen_width":2048,"browser":"chrome","browser_version":"103.0.0","mobile":false,"os":"Windows 10","vsync_rate":59.96,"participant_id":"S00","prestimulus_duration":372,"correct":true,"type":"Delboeuf","illusion_strength":-0.33333333333333337,"illusion_difference":-0.33333333333333337,"block_number":1,"trial_number":11},{"rt":null,"stimulus":"<div style=\"font-size:60px;\">+</div>","response":null,"screen":"fixation","trial_type":"html-keyboard-response","trial_index":28,"time_elapsed":19653,"internal_node_id":"0.0-4.0-2.0-0.11","screen_height":1002,"screen_width":2048,"browser":"chrome","browser_version":"103.0.0","mobile":false,"os":"Windows 10","vsync_rate":59.96,"participant_id":"S00","trial_duration":430},{"rt":449,"stimulus":"stimuli/Delboeuf_str1.0_diff1.0.png","response":"arrowleft","screen":"Trial","block":"Delboeuf","correct_response":"arrowleft","trial_type":"image-keyboard-response","trial_index":29,"time_elapsed":20102,"internal_node_id":"0.0-4.0-2.0-1.11","screen_height":1002,"screen_width":2048,"browser":"chrome","browser_version":"103.0.0","mobile":false,"os":"Windows 10","vsync_rate":59.96,"participant_id":"S00","prestimulus_duration":446,"correct":true,"type":"Delboeuf","illusion_strength":1,"illusion_difference":1,"block_number":1,"trial_number":12},{"rt":null,"stimulus":"<div style=\"font-size:60px;\">+</div>","response":null,"screen":"fixation","trial_type":"html-keyboard-response","trial_index":30,"time_elapsed":20547,"internal_node_id":"0.0-4.0-2.0-0.12","screen_height":1002,"screen_width":2048,"browser":"chrome","browser_version":"103.0.0","mobile":false,"os":"Windows 10","vsync_rate":59.96,"participant_id":"S00","trial_duration":439},{"rt":560,"stimulus":"stimuli/Delboeuf_str-0.33_diff0.33.png","response":"arrowleft","screen":"Trial","block":"Delboeuf","correct_response":"arrowleft","trial_type":"image-keyboard-response","trial_index":31,"time_elapsed":21107,"internal_node_id":"0.0-4.0-2.0-1.12","screen_height":1002,"screen_width":2048,"browser":"chrome","browser_version":"103.0.0","mobile":false,"os":"Windows 10","vsync_rate":59.96,"participant_id":"S00","prestimulus_duration":445,"correct":true,"type":"Delboeuf","illusion_strength":-0.33333333333333337,"illusion_difference":0.33333333333333326,"block_number":1,"trial_number":13},{"rt":null,"stimulus":"<div style=\"font-size:60px;\">+</div>","response":null,"screen":"fixation","trial_type":"html-keyboard-response","trial_index":32,"time_elapsed":21846,"internal_node_id":"0.0-4.0-2.0-0.13","screen_height":1002,"screen_width":2048,"browser":"chrome","browser_version":"103.0.0","mobile":false,"os":"Windows 10","vsync_rate":59.96,"participant_id":"S00","trial_duration":728},{"rt":665,"stimulus":"stimuli/Delboeuf_str1.0_diff-1.0.png","response":"arrowleft","screen":"Trial","block":"Delboeuf","correct_response":"arrowright","trial_type":"image-keyboard-response","trial_index":33,"time_elapsed":22511,"internal_node_id":"0.0-4.0-2.0-1.13","screen_height":1002,"screen_width":2048,"browser":"chrome","browser_version":"103.0.0","mobile":false,"os":"Windows 10","vsync_rate":59.96,"participant_id":"S00","prestimulus_duration":739,"correct":false,"type":"Delboeuf","illusion_strength":1,"illusion_difference":-1,"block_number":1,"trial_number":14},{"rt":null,"stimulus":"<div style=\"font-size:60px;\">+</div>","response":null,"screen":"fixation","trial_type":"html-keyboard-response","trial_index":34,"time_elapsed":22846,"internal_node_id":"0.0-4.0-2.0-0.14","screen_height":1002,"screen_width":2048,"browser":"chrome","browser_version":"103.0.0","mobile":false,"os":"Windows 10","vsync_rate":59.96,"participant_id":"S00","trial_duration":323},{"rt":575,"stimulus":"stimuli/Delboeuf_str-1.0_diff0.33.png","response":"arrowleft","screen":"Trial","block":"Delboeuf","correct_response":"arrowleft","trial_type":"image-keyboard-response","trial_index":35,"time_elapsed":23421,"internal_node_id":"0.0-4.0-2.0-1.14","screen_height":1002,"screen_width":2048,"browser":"chrome","browser_version":"103.0.0","mobile":false,"os":"Windows 10","vsync_rate":59.96,"participant_id":"S00","prestimulus_duration":335,"correct":true,"type":"Delboeuf","illusion_strength":-1,"illusion_difference":0.33333333333333326,"block_number":1,"trial_number":15},{"rt":null,"stimulus":"<div style=\"font-size:60px;\">+</div>","response":null,"screen":"fixation","trial_type":"html-keyboard-response","trial_index":36,"time_elapsed":23917,"internal_node_id":"0.0-4.0-2.0-0.15","screen_height":1002,"screen_width":2048,"browser":"chrome","browser_version":"103.0.0","mobile":false,"os":"Windows 10","vsync_rate":59.96,"participant_id":"S00","trial_duration":490},{"rt":557,"stimulus":"stimuli/Delboeuf_str-1.0_diff-0.33.png","response":"arrowright","screen":"Trial","block":"Delboeuf","correct_response":"arrowright","trial_type":"image-keyboard-response","trial_index":37,"time_elapsed":24474,"internal_node_id":"0.0-4.0-2.0-1.15","screen_height":1002,"screen_width":2048,"browser":"chrome","browser_version":"103.0.0","mobile":false,"os":"Windows 10","vsync_rate":59.96,"participant_id":"S00","prestimulus_duration":496,"correct":true,"type":"Delboeuf","illusion_strength":-1,"illusion_difference":-0.33333333333333337,"block_number":1,"trial_number":16},{"rt":2415,"stimulus":"<p>Your score for this illusion is <p style=\"color: black; font-size: 48px; font-weight: bold;\">4246</p><hr><p style='color:rgb(76,175,80);'>You performed better than <b>65.43</b>% of the population.</p><hr><p>Can you do better in the next illusion?</p>","response":0,"screen":"block_results","trial_type":"html-button-response","trial_index":38,"time_elapsed":26891,"internal_node_id":"0.0-4.0-3.0","screen_height":1002,"screen_width":2048,"browser":"chrome","browser_version":"103.0.0","mobile":false,"os":"Windows 10","vsync_rate":59.96,"participant_id":"S00"},{"success":true,"timeout":false,"failed_images":[],"failed_audio":[],"failed_video":[],"trial_type":"preload","trial_index":39,"time_elapsed":26891,"internal_node_id":"0.0-5.0-0.0","screen_height":1002,"screen_width":2048,"browser":"chrome","browser_version":"103.0.0","mobile":false,"os":"Windows 10","vsync_rate":59.96,"participant_id":"S00"},{"rt":1351,"stimulus":"<p><b>Part 2</b></p><p>In this part, two red circles will appear side by side on the screen.</p><p>Your task is to select which <b>red circle is bigger</b> in size as fast as you can, without making errors.</p><p>Don't get distracted by the surrounding black circles around the red circles!</p><p>Press <b>the left or the right arrow</b> to indicate where is the biggest <b>red circle.</b></p><div style='float: center'><img src='utils/stimuli_demo/Ebbinghaus_Demo.png' height='300'></img><p><img src='utils/answer/answer_leftright_keyboard.PNG' height='150'></img></p><p class='small'>In this example, the correct answer is the <b>left arrow</b>.</p></div><p>Are you ready? <b>Press ENTER to start</b></p>","response":"enter","trial_type":"html-keyboard-response","trial_index":40,"time_elapsed":28242,"internal_node_id":"0.0-5.0-1.0","screen_height":1002,"screen_width":2048,"browser":"chrome","browser_version":"103.0.0","mobile":false,"os":"Windows 10","vsync_rate":59.96,"participant_id":"S00"},{"rt":null,"stimulus":"<div style=\"font-size:60px;\">+</div>","response":null,"screen":"fixation","trial_type":"html-keyboard-response","trial_index":41,"time_elapsed":29165,"internal_node_id":"0.0-5.0-2.0-0.0","screen_height":1002,"screen_width":2048,"browser":"chrome","browser_version":"103.0.0","mobile":false,"os":"Windows 10","vsync_rate":59.96,"participant_id":"S00","trial_duration":416},{"rt":732,"stimulus":"stimuli/Ebbinghaus_str-1.0_diff-0.33.png","response":"arrowright","screen":"Trial","block":"Ebbinghaus","correct_response":"arrowright","trial_type":"image-keyboard-response","trial_index":42,"time_elapsed":29897,"internal_node_id":"0.0-5.0-2.0-1.0","screen_height":1002,"screen_width":2048,"browser":"chrome","browser_version":"103.0.0","mobile":false,"os":"Windows 10","vsync_rate":59.96,"participant_id":"S00","prestimulus_duration":923,"correct":true,"type":"Ebbinghaus","illusion_strength":-1,"illusion_difference":-0.33333333333333337,"block_number":2,"trial_number":1},{"rt":null,"stimulus":"<div style=\"font-size:60px;\">+</div>","response":null,"screen":"fixation","trial_type":"html-keyboard-response","trial_index":43,"time_elapsed":30478,"internal_node_id":"0.0-5.0-2.0-0.1","screen_height":1002,"screen_width":2048,"browser":"chrome","browser_version":"103.0.0","mobile":false,"os":"Windows 10","vsync_rate":59.96,"participant_id":"S00","trial_duration":567},{"rt":684,"stimulus":"stimuli/Ebbinghaus_str-0.33_diff-0.33.png","response":"arrowright","screen":"Trial","block":"Ebbinghaus","correct_response":"arrowright","trial_type":"image-keyboard-response","trial_index":44,"time_elapsed":31162,"internal_node_id":"0.0-5.0-2.0-1.1","screen_height":1002,"screen_width":2048,"browser":"chrome","browser_version":"103.0.0","mobile":false,"os":"Windows 10","vsync_rate":59.96,"participant_id":"S00","prestimulus_duration":581,"correct":true,"type":"Ebbinghaus","illusion_strength":-0.33333333333333337,"illusion_difference":-0.33333333333333337,"block_number":2,"trial_number":2},{"rt":null,"stimulus":"<div style=\"font-size:60px;\">+</div>","response":null,"screen":"fixation","trial_type":"html-keyboard-response","trial_index":45,"time_elapsed":31809,"internal_node_id":"0.0-5.0-2.0-0.2","screen_height":1002,"screen_width":2048,"browser":"chrome","browser_version":"103.0.0","mobile":false,"os":"Windows 10","vsync_rate":59.96,"participant_id":"S00","trial_duration":645},{"rt":549,"stimulus":"stimuli/Ebbinghaus_str1.0_diff0.33.png","response":"arrowleft","screen":"Trial","block":"Ebbinghaus","correct_response":"arrowleft","trial_type":"image-keyboard-response","trial_index":46,"time_elapsed":32358,"internal_node_id":"0.0-5.0-2.0-1.2","screen_height":1002,"screen_width":2048,"browser":"chrome","browser_version":"103.0.0","mobile":false,"os":"Windows 10","vsync_rate":59.96,"participant_id":"S00","prestimulus_duration":647,"correct":true,"type":"Ebbinghaus","illusion_strength":1,"illusion_difference":0.33333333333333326,"block_number":2,"trial_number":3},{"rt":null,"stimulus":"<div style=\"font-size:60px;\">+</div>","response":null,"screen":"fixation","trial_type":"html-keyboard-response","trial_index":47,"time_elapsed":33031,"internal_node_id":"0.0-5.0-2.0-0.3","screen_height":1002,"screen_width":2048,"browser":"chrome","browser_version":"103.0.0","mobile":false,"os":"Windows 10","vsync_rate":59.96,"participant_id":"S00","trial_duration":668},{"rt":430,"stimulus":"stimuli/Ebbinghaus_str0.33_diff-0.33.png","response":"arrowright","screen":"Trial","block":"Ebbinghaus","correct_response":"arrowright","trial_type":"image-keyboard-response","trial_index":48,"time_elapsed":33461,"internal_node_id":"0.0-5.0-2.0-1.3","screen_height":1002,"screen_width":2048,"browser":"chrome","browser_version":"103.0.0","mobile":false,"os":"Windows 10","vsync_rate":59.96,"participant_id":"S00","prestimulus_duration":673,"correct":true,"type":"Ebbinghaus","illusion_strength":0.33333333333333326,"illusion_difference":-0.33333333333333337,"block_number":2,"trial_number":4},{"rt":null,"stimulus":"<div style=\"font-size:60px;\">+</div>","response":null,"screen":"fixation","trial_type":"html-keyboard-response","trial_index":49,"time_elapsed":34128,"internal_node_id":"0.0-5.0-2.0-0.4","screen_height":1002,"screen_width":2048,"browser":"chrome","browser_version":"103.0.0","mobile":false,"os":"Windows 10","vsync_rate":59.96,"participant_id":"S00","trial_duration":654},{"rt":417,"stimulus":"stimuli/Ebbinghaus_str-1.0_diff-1.0.png","response":"arrowright","screen":"Trial","block":"Ebbinghaus","correct_response":"arrowright","trial_type":"image-keyboard-response","trial_index":50,"time_elapsed":34545,"internal_node_id":"0.0-5.0-2.0-1.4","screen_height":1002,"screen_width":2048,"browser":"chrome","browser_version":"103.0.0","mobile":false,"os":"Windows 10","vsync_rate":59.96,"participant_id":"S00","prestimulus_duration":667,"correct":true,"type":"Ebbinghaus","illusion_strength":-1,"illusion_difference":-1,"block_number":2,"trial_number":5},{"rt":null,"stimulus":"<div style=\"font-size:60px;\">+</div>","response":null,"screen":"fixation","trial_type":"html-keyboard-response","trial_index":51,"time_elapsed":34829,"internal_node_id":"0.0-5.0-2.0-0.5","screen_height":1002,"screen_width":2048,"browser":"chrome","browser_version":"103.0.0","mobile":false,"os":"Windows 10","vsync_rate":59.96,"participant_id":"S00","trial_duration":282},{"rt":582,"stimulus":"stimuli/Ebbinghaus_str-1.0_diff0.33.png","response":"arrowleft","screen":"Trial","block":"Ebbinghaus","correct_response":"arrowleft","trial_type":"image-keyboard-response","trial_index":52,"time_elapsed":35412,"internal_node_id":"0.0-5.0-2.0-1.5","screen_height":1002,"screen_width":2048,"browser":"chrome","browser_version":"103.0.0","mobile":false,"os":"Windows 10","vsync_rate":59.96,"participant_id":"S00","prestimulus_duration":284,"correct":true,"type":"Ebbinghaus","illusion_strength":-1,"illusion_difference":0.33333333333333326,"block_number":2,"trial_number":6},{"rt":null,"stimulus":"<div style=\"font-size:60px;\">+</div>","response":null,"screen":"fixation","trial_type":"html-keyboard-response","trial_index":53,"time_elapsed":36166,"internal_node_id":"0.0-5.0-2.0-0.6","screen_height":1002,"screen_width":2048,"browser":"chrome","browser_version":"103.0.0","mobile":false,"os":"Windows 10","vsync_rate":59.96,"participant_id":"S00","trial_duration":742},{"rt":439,"stimulus":"stimuli/Ebbinghaus_str1.0_diff1.0.png","response":"arrowleft","screen":"Trial","block":"Ebbinghaus","correct_response":"arrowleft","trial_type":"image-keyboard-response","trial_index":54,"time_elapsed":36606,"internal_node_id":"0.0-5.0-2.0-1.6","screen_height":1002,"screen_width":2048,"browser":"chrome","browser_version":"103.0.0","mobile":false,"os":"Windows 10","vsync_rate":59.96,"participant_id":"S00","prestimulus_duration":754,"correct":true,"type":"Ebbinghaus","illusion_strength":1,"illusion_difference":1,"block_number":2,"trial_number":7},{"rt":null,"stimulus":"<div style=\"font-size:60px;\">+</div>","response":null,"screen":"fixation","trial_type":"html-keyboard-response","trial_index":55,"time_elapsed":37049,"internal_node_id":"0.0-5.0-2.0-0.7","screen_height":1002,"screen_width":2048,"browser":"chrome","browser_version":"103.0.0","mobile":false,"os":"Windows 10","vsync_rate":59.96,"participant_id":"S00","trial_duration":429},{"rt":547,"stimulus":"stimuli/Ebbinghaus_str-1.0_diff1.0.png","response":"arrowleft","screen":"Trial","block":"Ebbinghaus","correct_response":"arrowleft","trial_type":"image-keyboard-response","trial_index":56,"time_elapsed":37596,"internal_node_id":"0.0-5.0-2.0-1.7","screen_height":1002,"screen_width":2048,"browser":"chrome","browser_version":"103.0.0","mobile":false,"os":"Windows 10","vsync_rate":59.96,"participant_id":"S00","prestimulus_duration":443,"correct":true,"type":"Ebbinghaus","illusion_strength":-1,"illusion_difference":1,"block_number":2,"trial_number":8},{"rt":null,"stimulus":"<div style=\"font-size:60px;\">+</div>","response":null,"screen":"fixation","trial_type":"html-keyboard-response","trial_index":57,"time_elapsed":38034,"internal_node_id":"0.0-5.0-2.0-0.8","screen_height":1002,"screen_width":2048,"browser":"chrome","browser_version":"103.0.0","mobile":false,"os":"Windows 10","vsync_rate":59.96,"participant_id":"S00","trial_duration":425},{"rt":572,"stimulus":"stimuli/Ebbinghaus_str-0.33_diff1.0.png","response":"arrowleft","screen":"Trial","block":"Ebbinghaus","correct_response":"arrowleft","trial_type":"image-keyboard-response","trial_index":58,"time_elapsed":38607,"internal_node_id":"0.0-5.0-2.0-1.8","screen_height":1002,"screen_width":2048,"browser":"chrome","browser_version":"103.0.0","mobile":false,"os":"Windows 10","vsync_rate":59.96,"participant_id":"S00","prestimulus_duration":438,"correct":true,"type":"Ebbinghaus","illusion_strength":-0.33333333333333337,"illusion_difference":1,"block_number":2,"trial_number":9},{"rt":null,"stimulus":"<div style=\"font-size:60px;\">+</div>","response":null,"screen":"fixation","trial_type":"html-keyboard-response","trial_index":59,"time_elapsed":39064,"internal_node_id":"0.0-5.0-2.0-0.9","screen_height":1002,"screen_width":2048,"browser":"chrome","browser_version":"103.0.0","mobile":false,"os":"Windows 10","vsync_rate":59.96,"participant_id":"S00","trial_duration":456},{"rt":431,"stimulus":"stimuli/Ebbinghaus_str1.0_diff-0.33.png","response":"arrowright","screen":"Trial","block":"Ebbinghaus","correct_response":"arrowright","trial_type":"image-keyboard-response","trial_index":60,"time_elapsed":39495,"internal_node_id":"0.0-5.0-2.0-1.9","screen_height":1002,"screen_width":2048,"browser":"chrome","browser_version":"103.0.0","mobile":false,"os":"Windows 10","vsync_rate":59.96,"participant_id":"S00","prestimulus_duration":457,"correct":true,"type":"Ebbinghaus","illusion_strength":1,"illusion_difference":-0.33333333333333337,"block_number":2,"trial_number":10},{"rt":null,"stimulus":"<div style=\"font-size:60px;\">+</div>","response":null,"screen":"fixation","trial_type":"html-keyboard-response","trial_index":61,"time_elapsed":40147,"internal_node_id":"0.0-5.0-2.0-0.10","screen_height":1002,"screen_width":2048,"browser":"chrome","browser_version":"103.0.0","mobile":false,"os":"Windows 10","vsync_rate":59.96,"participant_id":"S00","trial_duration":641},{"rt":529,"stimulus":"stimuli/Ebbinghaus_str-0.33_diff0.33.png","response":"arrowleft","screen":"Trial","block":"Ebbinghaus","correct_response":"arrowleft","trial_type":"image-keyboard-response","trial_index":62,"time_elapsed":40676,"internal_node_id":"0.0-5.0-2.0-1.10","screen_height":1002,"screen_width":2048,"browser":"chrome","browser_version":"103.0.0","mobile":false,"os":"Windows 10","vsync_rate":59.96,"participant_id":"S00","prestimulus_duration":652,"correct":true,"type":"Ebbinghaus","illusion_strength":-0.33333333333333337,"illusion_difference":0.33333333333333326,"block_number":2,"trial_number":11},{"rt":null,"stimulus":"<div style=\"font-size:60px;\">+</div>","response":null,"screen":"fixation","trial_type":"html-keyboard-response","trial_index":63,"time_elapsed":41042,"internal_node_id":"0.0-5.0-2.0-0.11","screen_height":1002,"screen_width":2048,"browser":"chrome","browser_version":"103.0.0","mobile":false,"os":"Windows 10","vsync_rate":59.96,"participant_id":"S00","trial_duration":358},{"rt":449,"stimulus":"stimuli/Ebbinghaus_str-0.33_diff-1.0.png","response":"arrowright","screen":"Trial","block":"Ebbinghaus","correct_response":"arrowright","trial_type":"image-keyboard-response","trial_index":64,"time_elapsed":41491,"internal_node_id":"0.0-5.0-2.0-1.11","screen_height":1002,"screen_width":2048,"browser":"chrome","browser_version":"103.0.0","mobile":false,"os":"Windows 10","vsync_rate":59.96,"participant_id":"S00","prestimulus_duration":366,"correct":true,"type":"Ebbinghaus","illusion_strength":-0.33333333333333337,"illusion_difference":-1,"block_number":2,"trial_number":12},{"rt":null,"stimulus":"<div style=\"font-size:60px;\">+</div>","response":null,"screen":"fixation","trial_type":"html-keyboard-response","trial_index":65,"time_elapsed":41833,"internal_node_id":"0.0-5.0-2.0-0.12","screen_height":1002,"screen_width":2048,"browser":"chrome","browser_version":"103.0.0","mobile":false,"os":"Windows 10","vsync_rate":59.96,"participant_id":"S00","trial_duration":328},{"rt":458,"stimulus":"stimuli/Ebbinghaus_str1.0_diff-1.0.png","response":"arrowright","screen":"Trial","block":"Ebbinghaus","correct_response":"arrowright","trial_type":"image-keyboard-response","trial_index":66,"time_elapsed":42292,"internal_node_id":"0.0-5.0-2.0-1.12","screen_height":1002,"screen_width":2048,"browser":"chrome","browser_version":"103.0.0","mobile":false,"os":"Windows 10","vsync_rate":59.96,"participant_id":"S00","prestimulus_duration":342,"correct":true,"type":"Ebbinghaus","illusion_strength":1,"illusion_difference":-1,"block_number":2,"trial_number":13},{"rt":null,"stimulus":"<div style=\"font-size:60px;\">+</div>","response":null,"screen":"fixation","trial_type":"html-keyboard-response","trial_index":67,"time_elapsed":42930,"internal_node_id":"0.0-5.0-2.0-0.13","screen_height":1002,"screen_width":2048,"browser":"chrome","browser_version":"103.0.0","mobile":false,"os":"Windows 10","vsync_rate":59.96,"participant_id":"S00","trial_duration":626},{"rt":417,"stimulus":"stimuli/Ebbinghaus_str0.33_diff0.33.png","response":"arrowleft","screen":"Trial","block":"Ebbinghaus","correct_response":"arrowleft","trial_type":"image-keyboard-response","trial_index":68,"time_elapsed":43347,"internal_node_id":"0.0-5.0-2.0-1.13","screen_height":1002,"screen_width":2048,"browser":"chrome","browser_version":"103.0.0","mobile":false,"os":"Windows 10","vsync_rate":59.96,"participant_id":"S00","prestimulus_duration":638,"correct":true,"type":"Ebbinghaus","illusion_strength":0.33333333333333326,"illusion_difference":0.33333333333333326,"block_number":2,"trial_number":14},{"rt":null,"stimulus":"<div style=\"font-size:60px;\">+</div>","response":null,"screen":"fixation","trial_type":"html-keyboard-response","trial_index":69,"time_elapsed":43819,"internal_node_id":"0.0-5.0-2.0-0.14","screen_height":1002,"screen_width":2048,"browser":"chrome","browser_version":"103.0.0","mobile":false,"os":"Windows 10","vsync_rate":59.96,"participant_id":"S00","trial_duration":464},{"rt":720,"stimulus":"stimuli/Ebbinghaus_str0.33_diff-1.0.png","response":"arrowright","screen":"Trial","block":"Ebbinghaus","correct_response":"arrowright","trial_type":"image-keyboard-response","trial_index":70,"time_elapsed":44540,"internal_node_id":"0.0-5.0-2.0-1.14","screen_height":1002,"screen_width":2048,"browser":"chrome","browser_version":"103.0.0","mobile":false,"os":"Windows 10","vsync_rate":59.96,"participant_id":"S00","prestimulus_duration":472,"correct":true,"type":"Ebbinghaus","illusion_strength":0.33333333333333326,"illusion_difference":-1,"block_number":2,"trial_number":15},{"rt":null,"stimulus":"<div style=\"font-size:60px;\">+</div>","response":null,"screen":"fixation","trial_type":"html-keyboard-response","trial_index":71,"time_elapsed":45280,"internal_node_id":"0.0-5.0-2.0-0.15","screen_height":1002,"screen_width":2048,"browser":"chrome","browser_version":"103.0.0","mobile":false,"os":"Windows 10","vsync_rate":59.96,"participant_id":"S00","trial_duration":729},{"rt":417,"stimulus":"stimuli/Ebbinghaus_str0.33_diff1.0.png","response":"arrowleft","screen":"Trial","block":"Ebbinghaus","correct_response":"arrowleft","trial_type":"image-keyboard-response","trial_index":72,"time_elapsed":45697,"internal_node_id":"0.0-5.0-2.0-1.15","screen_height":1002,"screen_width":2048,"browser":"chrome","browser_version":"103.0.0","mobile":false,"os":"Windows 10","vsync_rate":59.96,"participant_id":"S00","prestimulus_duration":740,"correct":true,"type":"Ebbinghaus","illusion_strength":0.33333333333333326,"illusion_difference":1,"block_number":2,"trial_number":16},{"rt":2376,"stimulus":"<p>Your score for this illusion is <p style=\"color: black; font-size: 48px; font-weight: bold;\">4477</p><hr><p style='color:rgb(76,175,80);'>You performed better than <b>66.25</b>% of the population.</p><hr><p>Can you do better in the next illusion?</p>","response":0,"screen":"block_results","trial_type":"html-button-response","trial_index":73,"time_elapsed":48075,"internal_node_id":"0.0-5.0-3.0","screen_height":1002,"screen_width":2048,"browser":"chrome","browser_version":"103.0.0","mobile":false,"os":"Windows 10","vsync_rate":59.96,"participant_id":"S00"},{"success":true,"timeout":false,"failed_images":[],"failed_audio":[],"failed_video":[],"trial_type":"preload","trial_index":74,"time_elapsed":48075,"internal_node_id":"0.0-6.0-0.0","screen_height":1002,"screen_width":2048,"browser":"chrome","browser_version":"103.0.0","mobile":false,"os":"Windows 10","vsync_rate":59.96,"participant_id":"S00"},{"rt":5341,"stimulus":"<p><b>Part 3</b></p><p>In this part, two horizontal red lines will appear above and below on the screen.</p><p>Your task is to select which <b>line is longer</b> in size as fast as you can, without making errors.</p><p>Don't get distracted by the surrounding black arrows at the end of the red lines!</p><p>Press <b>the UP or the DOWN arrow</b> to indicate where is the longest <b>red line.</b></p><div style='float: center'><img src='utils/stimuli_demo/MullerLyer_Demo.png' height='300'></img><p><img src='utils/answer/answer_updown_keyboard.PNG' height='150'></img></p><p class='small'>In this example, the correct answer is the <b>UP arrow</b>.</p></div><p>Are you ready? <b>Press ENTER to start</b></p>","response":"enter","trial_type":"html-keyboard-response","trial_index":75,"time_elapsed":53417,"internal_node_id":"0.0-6.0-1.0","screen_height":1002,"screen_width":2048,"browser":"chrome","browser_version":"103.0.0","mobile":false,"os":"Windows 10","vsync_rate":59.96,"participant_id":"S00"},{"rt":null,"stimulus":"<div style=\"font-size:60px;\">+</div>","response":null,"screen":"fixation","trial_type":"html-keyboard-response","trial_index":76,"time_elapsed":54490,"internal_node_id":"0.0-6.0-2.0-0.0","screen_height":1002,"screen_width":2048,"browser":"chrome","browser_version":"103.0.0","mobile":false,"os":"Windows 10","vsync_rate":59.96,"participant_id":"S00","trial_duration":573},{"rt":497,"stimulus":"stimuli/MullerLyer_str16.67_diff0.1.png","response":"arrowdown","screen":"Trial","block":"MullerLyer","correct_response":"arrowup","trial_type":"image-keyboard-response","trial_index":77,"time_elapsed":54987,"internal_node_id":"0.0-6.0-2.0-1.0","screen_height":1002,"screen_width":2048,"browser":"chrome","browser_version":"103.0.0","mobile":false,"os":"Windows 10","vsync_rate":59.96,"participant_id":"S00","prestimulus_duration":1073,"correct":false,"type":"MullerLyer","illusion_strength":16.66666666666667,"illusion_difference":0.09999999999999998,"block_number":3,"trial_number":1},{"rt":null,"stimulus":"<div style=\"font-size:60px;\">+</div>","response":null,"screen":"fixation","trial_type":"html-keyboard-response","trial_index":78,"time_elapsed":55399,"internal_node_id":"0.0-6.0-2.0-0.1","screen_height":1002,"screen_width":2048,"browser":"chrome","browser_version":"103.0.0","mobile":false,"os":"Windows 10","vsync_rate":59.96,"participant_id":"S00","trial_duration":401},{"rt":596,"stimulus":"stimuli/MullerLyer_str16.67_diff-0.3.png","response":"arrowup","screen":"Trial","block":"MullerLyer","correct_response":"arrowdown","trial_type":"image-keyboard-response","trial_index":79,"time_elapsed":55996,"internal_node_id":"0.0-6.0-2.0-1.1","screen_height":1002,"screen_width":2048,"browser":"chrome","browser_version":"103.0.0","mobile":false,"os":"Windows 10","vsync_rate":59.96,"participant_id":"S00","prestimulus_duration":412,"correct":false,"type":"MullerLyer","illusion_strength":16.66666666666667,"illusion_difference":-0.3,"block_number":3,"trial_number":2},{"rt":null,"stimulus":"<div style=\"font-size:60px;\">+</div>","response":null,"screen":"fixation","trial_type":"html-keyboard-response","trial_index":80,"time_elapsed":56435,"internal_node_id":"0.0-6.0-2.0-0.2","screen_height":1002,"screen_width":2048,"browser":"chrome","browser_version":"103.0.0","mobile":false,"os":"Windows 10","vsync_rate":59.96,"participant_id":"S00","trial_duration":438},{"rt":578,"stimulus":"stimuli/MullerLyer_str-50.0_diff0.3.png","response":"arrowup","screen":"Trial","block":"MullerLyer","correct_response":"arrowup","trial_type":"image-keyboard-response","trial_index":81,"time_elapsed":57013,"internal_node_id":"0.0-6.0-2.0-1.2","screen_height":1002,"screen_width":2048,"browser":"chrome","browser_version":"103.0.0","mobile":false,"os":"Windows 10","vsync_rate":59.96,"participant_id":"S00","prestimulus_duration":439,"correct":true,"type":"MullerLyer","illusion_strength":-50,"illusion_difference":0.3,"block_number":3,"trial_number":3},{"rt":null,"stimulus":"<div style=\"font-size:60px;\">+</div>","response":null,"screen":"fixation","trial_type":"html-keyboard-response","trial_index":82,"time_elapsed":57708,"internal_node_id":"0.0-6.0-2.0-0.3","screen_height":1002,"screen_width":2048,"browser":"chrome","browser_version":"103.0.0","mobile":false,"os":"Windows 10","vsync_rate":59.96,"participant_id":"S00","trial_duration":690},{"rt":456,"stimulus":"stimuli/MullerLyer_str-50.0_diff-0.1.png","response":"arrowdown","screen":"Trial","block":"MullerLyer","correct_response":"arrowdown","trial_type":"image-keyboard-response","trial_index":83,"time_elapsed":58165,"internal_node_id":"0.0-6.0-2.0-1.3","screen_height":1002,"screen_width":2048,"browser":"chrome","browser_version":"103.0.0","mobile":false,"os":"Windows 10","vsync_rate":59.96,"participant_id":"S00","prestimulus_duration":695,"correct":true,"type":"MullerLyer","illusion_strength":-50,"illusion_difference":-0.1,"block_number":3,"trial_number":4},{"rt":null,"stimulus":"<div style=\"font-size:60px;\">+</div>","response":null,"screen":"fixation","trial_type":"html-keyboard-response","trial_index":84,"time_elapsed":58885,"internal_node_id":"0.0-6.0-2.0-0.4","screen_height":1002,"screen_width":2048,"browser":"chrome","browser_version":"103.0.0","mobile":false,"os":"Windows 10","vsync_rate":59.96,"participant_id":"S00","trial_duration":712},{"rt":461,"stimulus":"stimuli/MullerLyer_str-16.67_diff0.3.png","response":"arrowup","screen":"Trial","block":"MullerLyer","correct_response":"arrowup","trial_type":"image-keyboard-response","trial_index":85,"time_elapsed":59347,"internal_node_id":"0.0-6.0-2.0-1.4","screen_height":1002,"screen_width":2048,"browser":"chrome","browser_version":"103.0.0","mobile":false,"os":"Windows 10","vsync_rate":59.96,"participant_id":"S00","prestimulus_duration":720,"correct":true,"type":"MullerLyer","illusion_strength":-16.666666666666664,"illusion_difference":0.3,"block_number":3,"trial_number":5},{"rt":null,"stimulus":"<div style=\"font-size:60px;\">+</div>","response":null,"screen":"fixation","trial_type":"html-keyboard-response","trial_index":86,"time_elapsed":59778,"internal_node_id":"0.0-6.0-2.0-0.5","screen_height":1002,"screen_width":2048,"browser":"chrome","browser_version":"103.0.0","mobile":false,"os":"Windows 10","vsync_rate":59.96,"participant_id":"S00","trial_duration":416},{"rt":480,"stimulus":"stimuli/MullerLyer_str50.0_diff-0.1.png","response":"arrowup","screen":"Trial","block":"MullerLyer","correct_response":"arrowdown","trial_type":"image-keyboard-response","trial_index":87,"time_elapsed":60258,"internal_node_id":"0.0-6.0-2.0-1.5","screen_height":1002,"screen_width":2048,"browser":"chrome","browser_version":"103.0.0","mobile":false,"os":"Windows 10","vsync_rate":59.96,"participant_id":"S00","prestimulus_duration":431,"correct":false,"type":"MullerLyer","illusion_strength":50,"illusion_difference":-0.1,"block_number":3,"trial_number":6},{"rt":null,"stimulus":"<div style=\"font-size:60px;\">+</div>","response":null,"screen":"fixation","trial_type":"html-keyboard-response","trial_index":88,"time_elapsed":60754,"internal_node_id":"0.0-6.0-2.0-0.6","screen_height":1002,"screen_width":2048,"browser":"chrome","browser_version":"103.0.0","mobile":false,"os":"Windows 10","vsync_rate":59.96,"participant_id":"S00","trial_duration":483},{"rt":529,"stimulus":"stimuli/MullerLyer_str-16.67_diff0.1.png","response":"arrowup","screen":"Trial","block":"MullerLyer","correct_response":"arrowup","trial_type":"image-keyboard-response","trial_index":89,"time_elapsed":61283,"internal_node_id":"0.0-6.0-2.0-1.6","screen_height":1002,"screen_width":2048,"browser":"chrome","browser_version":"103.0.0","mobile":false,"os":"Windows 10","vsync_rate":59.96,"participant_id":"S00","prestimulus_duration":496,"correct":true,"type":"MullerLyer","illusion_strength":-16.666666666666664,"illusion_difference":0.09999999999999998,"block_number":3,"trial_number":7},{"rt":null,"stimulus":"<div style=\"font-size:60px;\">+</div>","response":null,"screen":"fixation","trial_type":"html-keyboard-response","trial_index":90,"time_elapsed":61899,"internal_node_id":"0.0-6.0-2.0-0.7","screen_height":1002,"screen_width":2048,"browser":"chrome","browser_version":"103.0.0","mobile":false,"os":"Windows 10","vsync_rate":59.96,"participant_id":"S00","trial_duration":602},{"rt":397,"stimulus":"stimuli/MullerLyer_str50.0_diff0.1.png","response":"arrowdown","screen":"Trial","block":"MullerLyer","correct_response":"arrowup","trial_type":"image-keyboard-response","trial_index":91,"time_elapsed":62296,"internal_node_id":"0.0-6.0-2.0-1.7","screen_height":1002,"screen_width":2048,"browser":"chrome","browser_version":"103.0.0","mobile":false,"os":"Windows 10","vsync_rate":59.96,"participant_id":"S00","prestimulus_duration":616,"correct":false,"type":"MullerLyer","illusion_strength":50,"illusion_difference":0.09999999999999998,"block_number":3,"trial_number":8},{"rt":null,"stimulus":"<div style=\"font-size:60px;\">+</div>","response":null,"screen":"fixation","trial_type":"html-keyboard-response","trial_index":92,"time_elapsed":62704,"internal_node_id":"0.0-6.0-2.0-0.8","screen_height":1002,"screen_width":2048,"browser":"chrome","browser_version":"103.0.0","mobile":false,"os":"Windows 10","vsync_rate":59.96,"participant_id":"S00","trial_duration":394},{"rt":436,"stimulus":"stimuli/MullerLyer_str-16.67_diff-0.1.png","response":"arrowdown","screen":"Trial","block":"MullerLyer","correct_response":"arrowdown","trial_type":"image-keyboard-response","trial_index":93,"time_elapsed":63140,"internal_node_id":"0.0-6.0-2.0-1.8","screen_height":1002,"screen_width":2048,"browser":"chrome","browser_version":"103.0.0","mobile":false,"os":"Windows 10","vsync_rate":59.96,"participant_id":"S00","prestimulus_duration":408,"correct":true,"type":"MullerLyer","illusion_strength":-16.666666666666664,"illusion_difference":-0.1,"block_number":3,"trial_number":9},{"rt":null,"stimulus":"<div style=\"font-size:60px;\">+</div>","response":null,"screen":"fixation","trial_type":"html-keyboard-response","trial_index":94,"time_elapsed":63488,"internal_node_id":"0.0-6.0-2.0-0.9","screen_height":1002,"screen_width":2048,"browser":"chrome","browser_version":"103.0.0","mobile":false,"os":"Windows 10","vsync_rate":59.96,"participant_id":"S00","trial_duration":339},{"rt":468,"stimulus":"stimuli/MullerLyer_str50.0_diff0.3.png","response":"arrowdown","screen":"Trial","block":"MullerLyer","correct_response":"arrowup","trial_type":"image-keyboard-response","trial_index":95,"time_elapsed":63957,"internal_node_id":"0.0-6.0-2.0-1.9","screen_height":1002,"screen_width":2048,"browser":"chrome","browser_version":"103.0.0","mobile":false,"os":"Windows 10","vsync_rate":59.96,"participant_id":"S00","prestimulus_duration":348,"correct":false,"type":"MullerLyer","illusion_strength":50,"illusion_difference":0.3,"block_number":3,"trial_number":10},{"rt":null,"stimulus":"<div style=\"font-size:60px;\">+</div>","response":null,"screen":"fixation","trial_type":"html-keyboard-response","trial_index":96,"time_elapsed":64245,"internal_node_id":"0.0-6.0-2.0-0.10","screen_height":1002,"screen_width":2048,"browser":"chrome","browser_version":"103.0.0","mobile":false,"os":"Windows 10","vsync_rate":59.96,"participant_id":"S00","trial_duration":282},{"rt":559,"stimulus":"stimuli/MullerLyer_str16.67_diff-0.1.png","response":"arrowup","screen":"Trial","block":"MullerLyer","correct_response":"arrowdown","trial_type":"image-keyboard-response","trial_index":97,"time_elapsed":64804,"internal_node_id":"0.0-6.0-2.0-1.10","screen_height":1002,"screen_width":2048,"browser":"chrome","browser_version":"103.0.0","mobile":false,"os":"Windows 10","vsync_rate":59.96,"participant_id":"S00","prestimulus_duration":288,"correct":false,"type":"MullerLyer","illusion_strength":16.66666666666667,"illusion_difference":-0.1,"block_number":3,"trial_number":11},{"rt":null,"stimulus":"<div style=\"font-size:60px;\">+</div>","response":null,"screen":"fixation","trial_type":"html-keyboard-response","trial_index":98,"time_elapsed":65093,"internal_node_id":"0.0-6.0-2.0-0.11","screen_height":1002,"screen_width":2048,"browser":"chrome","browser_version":"103.0.0","mobile":false,"os":"Windows 10","vsync_rate":59.96,"participant_id":"S00","trial_duration":286},{"rt":614,"stimulus":"stimuli/MullerLyer_str16.67_diff0.3.png","response":"arrowup","screen":"Trial","block":"MullerLyer","correct_response":"arrowup","trial_type":"image-keyboard-response","trial_index":99,"time_elapsed":65707,"internal_node_id":"0.0-6.0-2.0-1.11","screen_height":1002,"screen_width":2048,"browser":"chrome","browser_version":"103.0.0","mobile":false,"os":"Windows 10","vsync_rate":59.96,"participant_id":"S00","prestimulus_duration":289,"correct":true,"type":"MullerLyer","illusion_strength":16.66666666666667,"illusion_difference":0.3,"block_number":3,"trial_number":12},{"rt":null,"stimulus":"<div style=\"font-size:60px;\">+</div>","response":null,"screen":"fixation","trial_type":"html-keyboard-response","trial_index":100,"time_elapsed":66458,"internal_node_id":"0.0-6.0-2.0-0.12","screen_height":1002,"screen_width":2048,"browser":"chrome","browser_version":"103.0.0","mobile":false,"os":"Windows 10","vsync_rate":59.96,"participant_id":"S00","trial_duration":748},{"rt":412,"stimulus":"stimuli/MullerLyer_str-50.0_diff-0.3.png","response":"arrowdown","screen":"Trial","block":"MullerLyer","correct_response":"arrowdown","trial_type":"image-keyboard-response","trial_index":101,"time_elapsed":66870,"internal_node_id":"0.0-6.0-2.0-1.12","screen_height":1002,"screen_width":2048,"browser":"chrome","browser_version":"103.0.0","mobile":false,"os":"Windows 10","vsync_rate":59.96,"participant_id":"S00","prestimulus_duration":751,"correct":true,"type":"MullerLyer","illusion_strength":-50,"illusion_difference":-0.3,"block_number":3,"trial_number":13},{"rt":null,"stimulus":"<div style=\"font-size:60px;\">+</div>","response":null,"screen":"fixation","trial_type":"html-keyboard-response","trial_index":102,"time_elapsed":67292,"internal_node_id":"0.0-6.0-2.0-0.13","screen_height":1002,"screen_width":2048,"browser":"chrome","browser_version":"103.0.0","mobile":false,"os":"Windows 10","vsync_rate":59.96,"participant_id":"S00","trial_duration":405},{"rt":528,"stimulus":"stimuli/MullerLyer_str-16.67_diff-0.3.png","response":"arrowdown","screen":"Trial","block":"MullerLyer","correct_response":"arrowdown","trial_type":"image-keyboard-response","trial_index":103,"time_elapsed":67821,"internal_node_id":"0.0-6.0-2.0-1.13","screen_height":1002,"screen_width":2048,"browser":"chrome","browser_version":"103.0.0","mobile":false,"os":"Windows 10","vsync_rate":59.96,"participant_id":"S00","prestimulus_duration":422,"correct":true,"type":"MullerLyer","illusion_strength":-16.666666666666664,"illusion_difference":-0.3,"block_number":3,"trial_number":14},{"rt":null,"stimulus":"<div style=\"font-size:60px;\">+</div>","response":null,"screen":"fixation","trial_type":"html-keyboard-response","trial_index":104,"time_elapsed":68402,"internal_node_id":"0.0-6.0-2.0-0.14","screen_height":1002,"screen_width":2048,"browser":"chrome","browser_version":"103.0.0","mobile":false,"os":"Windows 10","vsync_rate":59.96,"participant_id":"S00","trial_duration":572},{"rt":872,"stimulus":"stimuli/MullerLyer_str50.0_diff-0.3.png","response":"arrowup","screen":"Trial","block":"MullerLyer","correct_response":"arrowdown","trial_type":"image-keyboard-response","trial_index":105,"time_elapsed":69274,"internal_node_id":"0.0-6.0-2.0-1.14","screen_height":1002,"screen_width":2048,"browser":"chrome","browser_version":"103.0.0","mobile":false,"os":"Windows 10","vsync_rate":59.96,"participant_id":"S00","prestimulus_duration":581,"correct":false,"type":"MullerLyer","illusion_strength":50,"illusion_difference":-0.3,"block_number":3,"trial_number":15},{"rt":null,"stimulus":"<div style=\"font-size:60px;\">+</div>","response":null,"screen":"fixation","trial_type":"html-keyboard-response","trial_index":106,"time_elapsed":69789,"internal_node_id":"0.0-6.0-2.0-0.15","screen_height":1002,"screen_width":2048,"browser":"chrome","browser_version":"103.0.0","mobile":false,"os":"Windows 10","vsync_rate":59.96,"participant_id":"S00","trial_duration":513},{"rt":411,"stimulus":"stimuli/MullerLyer_str-50.0_diff0.1.png","response":"arrowup","screen":"Trial","block":"MullerLyer","correct_response":"arrowup","trial_type":"image-keyboard-response","trial_index":107,"time_elapsed":70201,"internal_node_id":"0.0-6.0-2.0-1.15","screen_height":1002,"screen_width":2048,"browser":"chrome","browser_version":"103.0.0","mobile":false,"os":"Windows 10","vsync_rate":59.96,"participant_id":"S00","prestimulus_duration":515,"correct":true,"type":"MullerLyer","illusion_strength":-50,"illusion_difference":0.09999999999999998,"block_number":3,"trial_number":16},{"rt":2069,"stimulus":"<p>Your score for this illusion is <p style=\"color: black; font-size: 48px; font-weight: bold;\">4126</p><hr><p style='color:rgb(76,175,80);'>You performed better than <b>78.67</b>% of the population.</p><hr><p>Can you do better in the next illusion?</p>","response":0,"screen":"block_results","trial_type":"html-button-response","trial_index":108,"time_elapsed":72271,"internal_node_id":"0.0-6.0-3.0","screen_height":1002,"screen_width":2048,"browser":"chrome","browser_version":"103.0.0","mobile":false,"os":"Windows 10","vsync_rate":59.96,"participant_id":"S00"},{"rt":1839,"stimulus":"<p><strong>Your final score is</strong> <p style=\"color: black; font-size: 48px; font-weight: bold;\">&#127881; 4314 &#127881;</p><hr><p style='color:rgb(76,175,80);'>You performed better than <b>71.81</b>% of the population.</p><hr><p>Wait for the experimenter to end the session.</p>","response":0,"screen":"final_results","trial_type":"html-button-response","trial_index":109,"time_elapsed":74111,"internal_node_id":"0.0-7.0","screen_height":1002,"screen_width":2048,"browser":"chrome","browser_version":"103.0.0","mobile":false,"os":"Windows 10","vsync_rate":59.96,"participant_id":"S00"},{"success":true,"trial_type":"fullscreen","trial_index":110,"time_elapsed":75113,"internal_node_id":"0.0-8.0","screen_height":1002,"screen_width":2048,"browser":"chrome","browser_version":"103.0.0","mobile":false,"os":"Windows 10","vsync_rate":59.96,"participant_id":"S00"}]