"Participant","Age","Sex","Education","Nationality","Ethnicity","Date","Time","Duration","Break_Duration","Screen_Resolution","Screen_Refresh","Browser","Browser_Version","Device","Device_OS","Illusion_Type","Block","Block_Order","Trial","Stimulus","Illusion_Strength","Illusion_Side","Illusion_Difference","Answer","Error","ISI","RT","Study"
"5bce155e561901000121006f_49472",29,"Female","Master","UK","Caucasian","31/07/2022","08:28:21",39.1869333333333,0.4056,"1920x927",59.35,"firefox","102.0.0","Desktop","Windows 10","Müller-Lyer",1,1,1,"MullerLyer_str-50.0_diff-0.2",-50,"-1",0.2,"arrowdown",0,591,1207,1
"5bce155e561901000121006f_49472",29,"Female","Master","UK","Caucasian","31/07/2022","08:28:21",39.1869333333333,0.4056,"1920x927",59.35,"firefox","102.0.0","Desktop","Windows 10","Müller-Lyer",1,1,2,"MullerLyer_str0.0_diff-0.2",0,"-1",0.2,"arrowdown",0,847,1099,1
"5bce155e561901000121006f_49472",29,"Female","Master","UK","Caucasian","31/07/2022","08:28:21",39.1869333333333,0.4056,"1920x927",59.35,"firefox","102.0.0","Desktop","Windows 10","Müller-Lyer",1,1,3,"MullerLyer_str50.0_diff-0.2",50,"-1",0.2,"arrowup",1,909,3266,1
"5bce155e561901000121006f_49472",29,"Female","Master","UK","Caucasian","31/07/2022","08:28:21",39.1869333333333,0.4056,"1920x927",59.35,"firefox","102.0.0","Desktop","Windows 10","Müller-Lyer",1,1,4,"MullerLyer_str-50.0_diff0.2",-50,"1",0.2,"arrowup",0,849,1554,1
"5bce155e561901000121006f_49472",29,"Female","Master","UK","Caucasian","31/07/2022","08:28:21",39.1869333333333,0.4056,"1920x927",59.35,"firefox","102.0.0","Desktop","Windows 10","Müller-Lyer",1,1,5,"MullerLyer_str-16.67_diff-0.05",-16.6666666666667,"-1",0.05,"arrowdown",0,718,956,1
"5bce155e561901000121006f_49472",29,"Female","Master","UK","Caucasian","31/07/2022","08:28:21",39.1869333333333,0.4056,"1920x927",59.35,"firefox","102.0.0","Desktop","Windows 10","Müller-Lyer",1,1,6,"MullerLyer_str0.0_diff0.05",0,"1",0.05,"arrowup",0,318,1473,1
"5bce155e561901000121006f_49472",29,"Female","Master","UK","Caucasian","31/07/2022","08:28:21",39.1869333333333,0.4056,"1920x927",59.35,"firefox","102.0.0","Desktop","Windows 10","Müller-Lyer",1,1,7,"MullerLyer_str-16.67_diff-0.2",-16.6666666666667,"-1",0.2,"arrowdown",0,755,1203,1
"5bce155e561901000121006f_49472",29,"Female","Master","UK","Caucasian","31/07/2022","08:28:21",39.1869333333333,0.4056,"1920x927",59.35,"firefox","102.0.0","Desktop","Windows 10","Müller-Lyer",1,1,8,"MullerLyer_str16.67_diff-0.2",16.6666666666667,"-1",0.2,"arrowdown",0,830,3464,1
"5bce155e561901000121006f_49472",29,"Female","Master","UK","Caucasian","31/07/2022","08:28:21",39.1869333333333,0.4056,"1920x927",59.35,"firefox","102.0.0","Desktop","Windows 10","Müller-Lyer",1,1,9,"MullerLyer_str33.33_diff0.5",33.3333333333333,"1",0.5,"arrowup",0,255,2266,1
"5bce155e561901000121006f_49472",29,"Female","Master","UK","Caucasian","31/07/2022","08:28:21",39.1869333333333,0.4056,"1920x927",59.35,"firefox","102.0.0","Desktop","Windows 10","Müller-Lyer",1,1,10,"MullerLyer_str16.67_diff-0.5",16.6666666666667,"-1",0.5,"arrowdown",0,380,1001,1
"5bce155e561901000121006f_49472",29,"Female","Master","UK","Caucasian","31/07/2022","08:28:21",39.1869333333333,0.4056,"1920x927",59.35,"firefox","102.0.0","Desktop","Windows 10","Müller-Lyer",1,1,11,"MullerLyer_str33.33_diff0.35",33.3333333333333,"1",0.35,"arrowup",0,666,1556,1
"5bce155e561901000121006f_49472",29,"Female","Master","UK","Caucasian","31/07/2022","08:28:21",39.1869333333333,0.4056,"1920x927",59.35,"firefox","102.0.0","Desktop","Windows 10","Müller-Lyer",1,1,12,"MullerLyer_str-33.33_diff0.35",-33.3333333333333,"1",0.35,"arrowup",0,519,811,1
"5bce155e561901000121006f_49472",29,"Female","Master","UK","Caucasian","31/07/2022","08:28:21",39.1869333333333,0.4056,"1920x927",59.35,"firefox","102.0.0","Desktop","Windows 10","Müller-Lyer",1,1,13,"MullerLyer_str-33.33_diff-0.05",-33.3333333333333,"-1",0.05,"arrowdown",0,752,922,1
"5bce155e561901000121006f_49472",29,"Female","Master","UK","Caucasian","31/07/2022","08:28:21",39.1869333333333,0.4056,"1920x927",59.35,"firefox","102.0.0","Desktop","Windows 10","Müller-Lyer",1,1,14,"MullerLyer_str50.0_diff0.5",50,"1",0.5,"arrowup",0,846,2539,1
"5bce155e561901000121006f_49472",29,"Female","Master","UK","Caucasian","31/07/2022","08:28:21",39.1869333333333,0.4056,"1920x927",59.35,"firefox","102.0.0","Desktop","Windows 10","Müller-Lyer",1,1,15,"MullerLyer_str33.33_diff-0.5",33.3333333333333,"-1",0.5,"arrowdown",0,892,1653,1
"5bce155e561901000121006f_49472",29,"Female","Master","UK","Caucasian","31/07/2022","08:28:21",39.1869333333333,0.4056,"1920x927",59.35,"firefox","102.0.0","Desktop","Windows 10","Müller-Lyer",1,1,16,"MullerLyer_str50.0_diff-0.05",50,"-1",0.05,"arrowup",1,754,1031,1
"5bce155e561901000121006f_49472",29,"Female","Master","UK","Caucasian","31/07/2022","08:28:21",39.1869333333333,0.4056,"1920x927",59.35,"firefox","102.0.0","Desktop","Windows 10","Müller-Lyer",1,1,17,"MullerLyer_str-16.67_diff0.05",-16.6666666666667,"1",0.05,"arrowup",0,561,1237,1
"5bce155e561901000121006f_49472",29,"Female","Master","UK","Caucasian","31/07/2022","08:28:21",39.1869333333333,0.4056,"1920x927",59.35,"firefox","102.0.0","Desktop","Windows 10","Müller-Lyer",1,1,18,"MullerLyer_str-50.0_diff-0.05",-50,"-1",0.05,"arrowdown",0,923,976,1
"5bce155e561901000121006f_49472",29,"Female","Master","UK","Caucasian","31/07/2022","08:28:21",39.1869333333333,0.4056,"1920x927",59.35,"firefox","102.0.0","Desktop","Windows 10","Müller-Lyer",1,1,19,"MullerLyer_str16.67_diff-0.35",16.6666666666667,"-1",0.35,"arrowdown",0,990,2412,1
"5bce155e561901000121006f_49472",29,"Female","Master","UK","Caucasian","31/07/2022","08:28:21",39.1869333333333,0.4056,"1920x927",59.35,"firefox","102.0.0","Desktop","Windows 10","Müller-Lyer",1,1,20,"MullerLyer_str-16.67_diff0.2",-16.6666666666667,"1",0.2,"arrowup",0,336,727,1
"5bce155e561901000121006f_49472",29,"Female","Master","UK","Caucasian","31/07/2022","08:28:21",39.1869333333333,0.4056,"1920x927",59.35,"firefox","102.0.0","Desktop","Windows 10","Müller-Lyer",1,1,21,"MullerLyer_str50.0_diff0.2",50,"1",0.2,"arrowup",0,990,3667,1
"5bce155e561901000121006f_49472",29,"Female","Master","UK","Caucasian","31/07/2022","08:28:21",39.1869333333333,0.4056,"1920x927",59.35,"firefox","102.0.0","Desktop","Windows 10","Müller-Lyer",1,1,22,"MullerLyer_str50.0_diff-0.5",50,"-1",0.5,"arrowdown",0,415,1089,1
"5bce155e561901000121006f_49472",29,"Female","Master","UK","Caucasian","31/07/2022","08:28:21",39.1869333333333,0.4056,"1920x927",59.35,"firefox","102.0.0","Desktop","Windows 10","Müller-Lyer",1,1,23,"MullerLyer_str-50.0_diff0.35",-50,"1",0.35,"arrowup",0,896,675,1
"5bce155e561901000121006f_49472",29,"Female","Master","UK","Caucasian","31/07/2022","08:28:21",39.1869333333333,0.4056,"1920x927",59.35,"firefox","102.0.0","Desktop","Windows 10","Müller-Lyer",1,1,24,"MullerLyer_str50.0_diff-0.35",50,"-1",0.35,"arrowup",1,750,2833,1
"5bce155e561901000121006f_49472",29,"Female","Master","UK","Caucasian","31/07/2022","08:28:21",39.1869333333333,0.4056,"1920x927",59.35,"firefox","102.0.0","Desktop","Windows 10","Müller-Lyer",1,1,25,"MullerLyer_str-33.33_diff-0.5",-33.3333333333333,"-1",0.5,"arrowdown",0,638,660,1
"5bce155e561901000121006f_49472",29,"Female","Master","UK","Caucasian","31/07/2022","08:28:21",39.1869333333333,0.4056,"1920x927",59.35,"firefox","102.0.0","Desktop","Windows 10","Müller-Lyer",1,1,26,"MullerLyer_str16.67_diff-0.05",16.6666666666667,"-1",0.05,"arrowup",1,519,979,1
"5bce155e561901000121006f_49472",29,"Female","Master","UK","Caucasian","31/07/2022","08:28:21",39.1869333333333,0.4056,"1920x927",59.35,"firefox","102.0.0","Desktop","Windows 10","Müller-Lyer",1,1,27,"MullerLyer_str-50.0_diff0.5",-50,"1",0.5,"arrowup",0,741,768,1
"5bce155e561901000121006f_49472",29,"Female","Master","UK","Caucasian","31/07/2022","08:28:21",39.1869333333333,0.4056,"1920x927",59.35,"firefox","102.0.0","Desktop","Windows 10","Müller-Lyer",1,1,28,"MullerLyer_str-50.0_diff-0.35",-50,"-1",0.35,"arrowdown",0,740,614,1
"5bce155e561901000121006f_49472",29,"Female","Master","UK","Caucasian","31/07/2022","08:28:21",39.1869333333333,0.4056,"1920x927",59.35,"firefox","102.0.0","Desktop","Windows 10","Müller-Lyer",1,1,29,"MullerLyer_str0.0_diff0.2",0,"1",0.2,"arrowup",0,482,765,1
"5bce155e561901000121006f_49472",29,"Female","Master","UK","Caucasian","31/07/2022","08:28:21",39.1869333333333,0.4056,"1920x927",59.35,"firefox","102.0.0","Desktop","Windows 10","Müller-Lyer",1,1,30,"MullerLyer_str16.67_diff0.35",16.6666666666667,"1",0.35,"arrowup",0,366,1128,1
"5bce155e561901000121006f_49472",29,"Female","Master","UK","Caucasian","31/07/2022","08:28:21",39.1869333333333,0.4056,"1920x927",59.35,"firefox","102.0.0","Desktop","Windows 10","Müller-Lyer",1,1,31,"MullerLyer_str-33.33_diff0.05",-33.3333333333333,"1",0.05,"arrowup",0,521,710,1
"5bce155e561901000121006f_49472",29,"Female","Master","UK","Caucasian","31/07/2022","08:28:21",39.1869333333333,0.4056,"1920x927",59.35,"firefox","102.0.0","Desktop","Windows 10","Müller-Lyer",1,1,32,"MullerLyer_str-16.67_diff0.5",-16.6666666666667,"1",0.5,"arrowup",0,390,617,1
"5bce155e561901000121006f_49472",29,"Female","Master","UK","Caucasian","31/07/2022","08:28:21",39.1869333333333,0.4056,"1920x927",59.35,"firefox","102.0.0","Desktop","Windows 10","Müller-Lyer",1,1,33,"MullerLyer_str0.0_diff-0.35",0,"-1",0.35,"arrowdown",0,646,578,1
"5bce155e561901000121006f_49472",29,"Female","Master","UK","Caucasian","31/07/2022","08:28:21",39.1869333333333,0.4056,"1920x927",59.35,"firefox","102.0.0","Desktop","Windows 10","Müller-Lyer",1,1,34,"MullerLyer_str-16.67_diff0.35",-16.6666666666667,"1",0.35,"arrowup",0,633,548,1
"5bce155e561901000121006f_49472",29,"Female","Master","UK","Caucasian","31/07/2022","08:28:21",39.1869333333333,0.4056,"1920x927",59.35,"firefox","102.0.0","Desktop","Windows 10","Müller-Lyer",1,1,35,"MullerLyer_str0.0_diff0.35",0,"1",0.35,"arrowup",0,803,588,1
"5bce155e561901000121006f_49472",29,"Female","Master","UK","Caucasian","31/07/2022","08:28:21",39.1869333333333,0.4056,"1920x927",59.35,"firefox","102.0.0","Desktop","Windows 10","Müller-Lyer",1,1,36,"MullerLyer_str16.67_diff0.5",16.6666666666667,"1",0.5,"arrowup",0,428,908,1
"5bce155e561901000121006f_49472",29,"Female","Master","UK","Caucasian","31/07/2022","08:28:21",39.1869333333333,0.4056,"1920x927",59.35,"firefox","102.0.0","Desktop","Windows 10","Müller-Lyer",1,1,37,"MullerLyer_str16.67_diff0.2",16.6666666666667,"1",0.2,"arrowdown",1,838,840,1
"5bce155e561901000121006f_49472",29,"Female","Master","UK","Caucasian","31/07/2022","08:28:21",39.1869333333333,0.4056,"1920x927",59.35,"firefox","102.0.0","Desktop","Windows 10","Müller-Lyer",1,1,38,"MullerLyer_str-50.0_diff0.05",-50,"1",0.05,"arrowup",0,445,639,1
"5bce155e561901000121006f_49472",29,"Female","Master","UK","Caucasian","31/07/2022","08:28:21",39.1869333333333,0.4056,"1920x927",59.35,"firefox","102.0.0","Desktop","Windows 10","Müller-Lyer",1,1,39,"MullerLyer_str33.33_diff-0.05",33.3333333333333,"-1",0.05,"arrowup",1,260,683,1
"5bce155e561901000121006f_49472",29,"Female","Master","UK","Caucasian","31/07/2022","08:28:21",39.1869333333333,0.4056,"1920x927",59.35,"firefox","102.0.0","Desktop","Windows 10","Müller-Lyer",1,1,40,"MullerLyer_str-33.33_diff0.5",-33.3333333333333,"1",0.5,"arrowup",0,739,514,1
"5bce155e561901000121006f_49472",29,"Female","Master","UK","Caucasian","31/07/2022","08:28:21",39.1869333333333,0.4056,"1920x927",59.35,"firefox","102.0.0","Desktop","Windows 10","Müller-Lyer",1,1,41,"MullerLyer_str0.0_diff-0.05",0,"-1",0.05,"arrowdown",0,371,1159,1
"5bce155e561901000121006f_49472",29,"Female","Master","UK","Caucasian","31/07/2022","08:28:21",39.1869333333333,0.4056,"1920x927",59.35,"firefox","102.0.0","Desktop","Windows 10","Müller-Lyer",1,1,42,"MullerLyer_str-16.67_diff-0.35",-16.6666666666667,"-1",0.35,"arrowdown",0,834,609,1
"5bce155e561901000121006f_49472",29,"Female","Master","UK","Caucasian","31/07/2022","08:28:21",39.1869333333333,0.4056,"1920x927",59.35,"firefox","102.0.0","Desktop","Windows 10","Müller-Lyer",1,1,43,"MullerLyer_str33.33_diff0.05",33.3333333333333,"1",0.05,"arrowdown",1,605,1176,1
"5bce155e561901000121006f_49472",29,"Female","Master","UK","Caucasian","31/07/2022","08:28:21",39.1869333333333,0.4056,"1920x927",59.35,"firefox","102.0.0","Desktop","Windows 10","Müller-Lyer",1,1,44,"MullerLyer_str16.67_diff0.05",16.6666666666667,"1",0.05,"arrowdown",1,424,1344,1
"5bce155e561901000121006f_49472",29,"Female","Master","UK","Caucasian","31/07/2022","08:28:21",39.1869333333333,0.4056,"1920x927",59.35,"firefox","102.0.0","Desktop","Windows 10","Müller-Lyer",1,1,45,"MullerLyer_str0.0_diff-0.5",0,"-1",0.5,"arrowdown",0,556,561,1
"5bce155e561901000121006f_49472",29,"Female","Master","UK","Caucasian","31/07/2022","08:28:21",39.1869333333333,0.4056,"1920x927",59.35,"firefox","102.0.0","Desktop","Windows 10","Müller-Lyer",1,1,46,"MullerLyer_str50.0_diff0.05",50,"1",0.05,"arrowdown",1,750,768,1
"5bce155e561901000121006f_49472",29,"Female","Master","UK","Caucasian","31/07/2022","08:28:21",39.1869333333333,0.4056,"1920x927",59.35,"firefox","102.0.0","Desktop","Windows 10","Müller-Lyer",1,1,47,"MullerLyer_str33.33_diff0.2",33.3333333333333,"1",0.2,"arrowdown",1,784,697,1
"5bce155e561901000121006f_49472",29,"Female","Master","UK","Caucasian","31/07/2022","08:28:21",39.1869333333333,0.4056,"1920x927",59.35,"firefox","102.0.0","Desktop","Windows 10","Müller-Lyer",1,1,48,"MullerLyer_str33.33_diff-0.2",33.3333333333333,"-1",0.2,"arrowup",1,599,891,1
"5bce155e561901000121006f_49472",29,"Female","Master","UK","Caucasian","31/07/2022","08:28:21",39.1869333333333,0.4056,"1920x927",59.35,"firefox","102.0.0","Desktop","Windows 10","Müller-Lyer",1,1,49,"MullerLyer_str33.33_diff-0.35",33.3333333333333,"-1",0.35,"arrowup",1,837,822,1
"5bce155e561901000121006f_49472",29,"Female","Master","UK","Caucasian","31/07/2022","08:28:21",39.1869333333333,0.4056,"1920x927",59.35,"firefox","102.0.0","Desktop","Windows 10","Müller-Lyer",1,1,50,"MullerLyer_str-33.33_diff0.2",-33.3333333333333,"1",0.2,"arrowup",0,965,632,1
"5bce155e561901000121006f_49472",29,"Female","Master","UK","Caucasian","31/07/2022","08:28:21",39.1869333333333,0.4056,"1920x927",59.35,"firefox","102.0.0","Desktop","Windows 10","Müller-Lyer",1,1,51,"MullerLyer_str-50.0_diff-0.5",-50,"-1",0.5,"arrowdown",0,445,603,1
"5bce155e561901000121006f_49472",29,"Female","Master","UK","Caucasian","31/07/2022","08:28:21",39.1869333333333,0.4056,"1920x927",59.35,"firefox","102.0.0","Desktop","Windows 10","Müller-Lyer",1,1,52,"MullerLyer_str-33.33_diff-0.2",-33.3333333333333,"-1",0.2,"arrowdown",0,571,597,1
"5bce155e561901000121006f_49472",29,"Female","Master","UK","Caucasian","31/07/2022","08:28:21",39.1869333333333,0.4056,"1920x927",59.35,"firefox","102.0.0","Desktop","Windows 10","Müller-Lyer",1,1,53,"MullerLyer_str50.0_diff0.35",50,"1",0.35,"arrowup",0,701,1338,1
"5bce155e561901000121006f_49472",29,"Female","Master","UK","Caucasian","31/07/2022","08:28:21",39.1869333333333,0.4056,"1920x927",59.35,"firefox","102.0.0","Desktop","Windows 10","Müller-Lyer",1,1,54,"MullerLyer_str0.0_diff0.5",0,"1",0.5,"arrowup",0,755,620,1
"5bce155e561901000121006f_49472",29,"Female","Master","UK","Caucasian","31/07/2022","08:28:21",39.1869333333333,0.4056,"1920x927",59.35,"firefox","102.0.0","Desktop","Windows 10","Müller-Lyer",1,1,55,"MullerLyer_str-16.67_diff-0.5",-16.6666666666667,"-1",0.5,"arrowdown",0,806,551,1
"5bce155e561901000121006f_49472",29,"Female","Master","UK","Caucasian","31/07/2022","08:28:21",39.1869333333333,0.4056,"1920x927",59.35,"firefox","102.0.0","Desktop","Windows 10","Müller-Lyer",1,1,56,"MullerLyer_str-33.33_diff-0.35",-33.3333333333333,"-1",0.35,"arrowdown",0,616,589,1
"5bce155e561901000121006f_49472",29,"Female","Master","UK","Caucasian","31/07/2022","08:28:21",39.1869333333333,0.4056,"1920x927",59.35,"firefox","102.0.0","Desktop","Windows 10","White",1,2,1,"White_str0.0_diff20.0",0,"1",20,"arrowleft",0,873,670,1
"5bce155e561901000121006f_49472",29,"Female","Master","UK","Caucasian","31/07/2022","08:28:21",39.1869333333333,0.4056,"1920x927",59.35,"firefox","102.0.0","Desktop","Windows 10","White",1,2,2,"White_str0.0_diff-10.0",0,"-1",10,"arrowright",0,817,486,1
"5bce155e561901000121006f_49472",29,"Female","Master","UK","Caucasian","31/07/2022","08:28:21",39.1869333333333,0.4056,"1920x927",59.35,"firefox","102.0.0","Desktop","Windows 10","White",1,2,3,"White_str0.0_diff10.0",0,"1",10,"arrowleft",0,740,592,1
"5bce155e561901000121006f_49472",29,"Female","Master","UK","Caucasian","31/07/2022","08:28:21",39.1869333333333,0.4056,"1920x927",59.35,"firefox","102.0.0","Desktop","Windows 10","White",1,2,4,"White_str-25.0_diff-5.0",-25,"-1",5,"arrowright",0,841,1229,1
"5bce155e561901000121006f_49472",29,"Female","Master","UK","Caucasian","31/07/2022","08:28:21",39.1869333333333,0.4056,"1920x927",59.35,"firefox","102.0.0","Desktop","Windows 10","White",1,2,5,"White_str25.0_diff15.0",25,"1",15,"arrowleft",0,491,6018,1
"5bce155e561901000121006f_49472",29,"Female","Master","UK","Caucasian","31/07/2022","08:28:21",39.1869333333333,0.4056,"1920x927",59.35,"firefox","102.0.0","Desktop","Windows 10","White",1,2,6,"White_str-25.0_diff-10.0",-25,"-1",10,"arrowright",0,806,1180,1
"5bce155e561901000121006f_49472",29,"Female","Master","UK","Caucasian","31/07/2022","08:28:21",39.1869333333333,0.4056,"1920x927",59.35,"firefox","102.0.0","Desktop","Windows 10","White",1,2,7,"White_str16.67_diff-10.0",16.6666666666667,"-1",10,"arrowright",0,881,2765,1
"5bce155e561901000121006f_49472",29,"Female","Master","UK","Caucasian","31/07/2022","08:28:21",39.1869333333333,0.4056,"1920x927",59.35,"firefox","102.0.0","Desktop","Windows 10","White",1,2,8,"White_str-25.0_diff15.0",-25,"1",15,"arrowleft",0,523,1847,1
"5bce155e561901000121006f_49472",29,"Female","Master","UK","Caucasian","31/07/2022","08:28:21",39.1869333333333,0.4056,"1920x927",59.35,"firefox","102.0.0","Desktop","Windows 10","White",1,2,9,"White_str8.33_diff-5.0",8.33333333333334,"-1",5,"arrowright",0,354,5263,1
"5bce155e561901000121006f_49472",29,"Female","Master","UK","Caucasian","31/07/2022","08:28:21",39.1869333333333,0.4056,"1920x927",59.35,"firefox","102.0.0","Desktop","Windows 10","White",1,2,10,"White_str16.67_diff20.0",16.6666666666667,"1",20,"arrowleft",0,761,936,1
"5bce155e561901000121006f_49472",29,"Female","Master","UK","Caucasian","31/07/2022","08:28:21",39.1869333333333,0.4056,"1920x927",59.35,"firefox","102.0.0","Desktop","Windows 10","White",1,2,11,"White_str-16.67_diff10.0",-16.6666666666667,"1",10,"arrowleft",0,357,1558,1
"5bce155e561901000121006f_49472",29,"Female","Master","UK","Caucasian","31/07/2022","08:28:21",39.1869333333333,0.4056,"1920x927",59.35,"firefox","102.0.0","Desktop","Windows 10","White",1,2,12,"White_str-8.33_diff15.0",-8.33333333333333,"1",15,"arrowleft",0,573,737,1
"5bce155e561901000121006f_49472",29,"Female","Master","UK","Caucasian","31/07/2022","08:28:21",39.1869333333333,0.4056,"1920x927",59.35,"firefox","102.0.0","Desktop","Windows 10","White",1,2,13,"White_str0.0_diff15.0",0,"1",15,"arrowleft",0,468,654,1
"5bce155e561901000121006f_49472",29,"Female","Master","UK","Caucasian","31/07/2022","08:28:21",39.1869333333333,0.4056,"1920x927",59.35,"firefox","102.0.0","Desktop","Windows 10","White",1,2,14,"White_str-16.67_diff20.0",-16.6666666666667,"1",20,"arrowleft",0,491,1455,1
"5bce155e561901000121006f_49472",29,"Female","Master","UK","Caucasian","31/07/2022","08:28:21",39.1869333333333,0.4056,"1920x927",59.35,"firefox","102.0.0","Desktop","Windows 10","White",1,2,15,"White_str8.33_diff-10.0",8.33333333333334,"-1",10,"arrowright",0,486,2528,1
"5bce155e561901000121006f_49472",29,"Female","Master","UK","Caucasian","31/07/2022","08:28:21",39.1869333333333,0.4056,"1920x927",59.35,"firefox","102.0.0","Desktop","Windows 10","White",1,2,16,"White_str-8.33_diff10.0",-8.33333333333333,"1",10,"arrowleft",0,336,1774,1
"5bce155e561901000121006f_49472",29,"Female","Master","UK","Caucasian","31/07/2022","08:28:21",39.1869333333333,0.4056,"1920x927",59.35,"firefox","102.0.0","Desktop","Windows 10","White",1,2,17,"White_str0.0_diff-15.0",0,"-1",15,"arrowright",0,727,740,1
"5bce155e561901000121006f_49472",29,"Female","Master","UK","Caucasian","31/07/2022","08:28:21",39.1869333333333,0.4056,"1920x927",59.35,"firefox","102.0.0","Desktop","Windows 10","White",1,2,18,"White_str-8.33_diff-10.0",-8.33333333333333,"-1",10,"arrowright",0,918,883,1
"5bce155e561901000121006f_49472",29,"Female","Master","UK","Caucasian","31/07/2022","08:28:21",39.1869333333333,0.4056,"1920x927",59.35,"firefox","102.0.0","Desktop","Windows 10","White",1,2,19,"White_str8.33_diff-20.0",8.33333333333334,"-1",20,"arrowright",0,340,842,1
"5bce155e561901000121006f_49472",29,"Female","Master","UK","Caucasian","31/07/2022","08:28:21",39.1869333333333,0.4056,"1920x927",59.35,"firefox","102.0.0","Desktop","Windows 10","White",1,2,20,"White_str-16.67_diff-5.0",-16.6666666666667,"-1",5,"arrowright",0,890,844,1
"5bce155e561901000121006f_49472",29,"Female","Master","UK","Caucasian","31/07/2022","08:28:21",39.1869333333333,0.4056,"1920x927",59.35,"firefox","102.0.0","Desktop","Windows 10","White",1,2,21,"White_str8.33_diff15.0",8.33333333333334,"1",15,"arrowleft",0,879,884,1
"5bce155e561901000121006f_49472",29,"Female","Master","UK","Caucasian","31/07/2022","08:28:21",39.1869333333333,0.4056,"1920x927",59.35,"firefox","102.0.0","Desktop","Windows 10","White",1,2,22,"White_str25.0_diff10.0",25,"1",10,"arrowleft",0,510,2341,1
"5bce155e561901000121006f_49472",29,"Female","Master","UK","Caucasian","31/07/2022","08:28:21",39.1869333333333,0.4056,"1920x927",59.35,"firefox","102.0.0","Desktop","Windows 10","White",1,2,23,"White_str25.0_diff20.0",25,"1",20,"arrowleft",0,302,5533,1
"5bce155e561901000121006f_49472",29,"Female","Master","UK","Caucasian","31/07/2022","08:28:21",39.1869333333333,0.4056,"1920x927",59.35,"firefox","102.0.0","Desktop","Windows 10","White",1,2,24,"White_str16.67_diff-20.0",16.6666666666667,"-1",20,"arrowright",0,416,2129,1
"5bce155e561901000121006f_49472",29,"Female","Master","UK","Caucasian","31/07/2022","08:28:21",39.1869333333333,0.4056,"1920x927",59.35,"firefox","102.0.0","Desktop","Windows 10","White",1,2,25,"White_str8.33_diff-15.0",8.33333333333334,"-1",15,"arrowright",0,890,983,1
"5bce155e561901000121006f_49472",29,"Female","Master","UK","Caucasian","31/07/2022","08:28:21",39.1869333333333,0.4056,"1920x927",59.35,"firefox","102.0.0","Desktop","Windows 10","White",1,2,26,"White_str25.0_diff-5.0",25,"-1",5,"arrowleft",1,823,4881,1
"5bce155e561901000121006f_49472",29,"Female","Master","UK","Caucasian","31/07/2022","08:28:21",39.1869333333333,0.4056,"1920x927",59.35,"firefox","102.0.0","Desktop","Windows 10","White",1,2,27,"White_str-25.0_diff-15.0",-25,"-1",15,"arrowright",0,652,946,1
"5bce155e561901000121006f_49472",29,"Female","Master","UK","Caucasian","31/07/2022","08:28:21",39.1869333333333,0.4056,"1920x927",59.35,"firefox","102.0.0","Desktop","Windows 10","White",1,2,28,"White_str16.67_diff-15.0",16.6666666666667,"-1",15,"arrowleft",1,893,2831,1
"5bce155e561901000121006f_49472",29,"Female","Master","UK","Caucasian","31/07/2022","08:28:21",39.1869333333333,0.4056,"1920x927",59.35,"firefox","102.0.0","Desktop","Windows 10","White",1,2,29,"White_str-8.33_diff20.0",-8.33333333333333,"1",20,"arrowleft",0,305,1700,1
"5bce155e561901000121006f_49472",29,"Female","Master","UK","Caucasian","31/07/2022","08:28:21",39.1869333333333,0.4056,"1920x927",59.35,"firefox","102.0.0","Desktop","Windows 10","White",1,2,30,"White_str0.0_diff-20.0",0,"-1",20,"arrowright",0,349,763,1
"5bce155e561901000121006f_49472",29,"Female","Master","UK","Caucasian","31/07/2022","08:28:21",39.1869333333333,0.4056,"1920x927",59.35,"firefox","102.0.0","Desktop","Windows 10","White",1,2,31,"White_str8.33_diff10.0",8.33333333333334,"1",10,"arrowleft",0,814,1801,1
"5bce155e561901000121006f_49472",29,"Female","Master","UK","Caucasian","31/07/2022","08:28:21",39.1869333333333,0.4056,"1920x927",59.35,"firefox","102.0.0","Desktop","Windows 10","White",1,2,32,"White_str-25.0_diff-20.0",-25,"-1",20,"arrowright",0,528,617,1
"5bce155e561901000121006f_49472",29,"Female","Master","UK","Caucasian","31/07/2022","08:28:21",39.1869333333333,0.4056,"1920x927",59.35,"firefox","102.0.0","Desktop","Windows 10","White",1,2,33,"White_str-8.33_diff-5.0",-8.33333333333333,"-1",5,"arrowright",0,615,587,1
"5bce155e561901000121006f_49472",29,"Female","Master","UK","Caucasian","31/07/2022","08:28:21",39.1869333333333,0.4056,"1920x927",59.35,"firefox","102.0.0","Desktop","Windows 10","White",1,2,34,"White_str16.67_diff15.0",16.6666666666667,"1",15,"arrowleft",0,819,5096,1
"5bce155e561901000121006f_49472",29,"Female","Master","UK","Caucasian","31/07/2022","08:28:21",39.1869333333333,0.4056,"1920x927",59.35,"firefox","102.0.0","Desktop","Windows 10","White",1,2,35,"White_str25.0_diff5.0",25,"1",5,"arrowright",1,360,949,1
"5bce155e561901000121006f_49472",29,"Female","Master","UK","Caucasian","31/07/2022","08:28:21",39.1869333333333,0.4056,"1920x927",59.35,"firefox","102.0.0","Desktop","Windows 10","White",1,2,36,"White_str25.0_diff-15.0",25,"-1",15,"arrowright",0,481,2445,1
"5bce155e561901000121006f_49472",29,"Female","Master","UK","Caucasian","31/07/2022","08:28:21",39.1869333333333,0.4056,"1920x927",59.35,"firefox","102.0.0","Desktop","Windows 10","White",1,2,37,"White_str-8.33_diff5.0",-8.33333333333333,"1",5,"arrowleft",0,257,1475,1
"5bce155e561901000121006f_49472",29,"Female","Master","UK","Caucasian","31/07/2022","08:28:21",39.1869333333333,0.4056,"1920x927",59.35,"firefox","102.0.0","Desktop","Windows 10","White",1,2,38,"White_str-16.67_diff15.0",-16.6666666666667,"1",15,"arrowleft",0,883,783,1
"5bce155e561901000121006f_49472",29,"Female","Master","UK","Caucasian","31/07/2022","08:28:21",39.1869333333333,0.4056,"1920x927",59.35,"firefox","102.0.0","Desktop","Windows 10","White",1,2,39,"White_str-25.0_diff5.0",-25,"1",5,"arrowleft",0,272,2676,1
"5bce155e561901000121006f_49472",29,"Female","Master","UK","Caucasian","31/07/2022","08:28:21",39.1869333333333,0.4056,"1920x927",59.35,"firefox","102.0.0","Desktop","Windows 10","White",1,2,40,"White_str-25.0_diff20.0",-25,"1",20,"arrowleft",0,723,711,1
"5bce155e561901000121006f_49472",29,"Female","Master","UK","Caucasian","31/07/2022","08:28:21",39.1869333333333,0.4056,"1920x927",59.35,"firefox","102.0.0","Desktop","Windows 10","White",1,2,41,"White_str8.33_diff20.0",8.33333333333334,"1",20,"arrowleft",0,766,443,1
"5bce155e561901000121006f_49472",29,"Female","Master","UK","Caucasian","31/07/2022","08:28:21",39.1869333333333,0.4056,"1920x927",59.35,"firefox","102.0.0","Desktop","Windows 10","White",1,2,42,"White_str0.0_diff5.0",0,"1",5,"arrowleft",0,427,1224,1
"5bce155e561901000121006f_49472",29,"Female","Master","UK","Caucasian","31/07/2022","08:28:21",39.1869333333333,0.4056,"1920x927",59.35,"firefox","102.0.0","Desktop","Windows 10","White",1,2,43,"White_str-16.67_diff-10.0",-16.6666666666667,"-1",10,"arrowright",0,932,625,1
"5bce155e561901000121006f_49472",29,"Female","Master","UK","Caucasian","31/07/2022","08:28:21",39.1869333333333,0.4056,"1920x927",59.35,"firefox","102.0.0","Desktop","Windows 10","White",1,2,44,"White_str25.0_diff-10.0",25,"-1",10,"arrowleft",1,253,1224,1
"5bce155e561901000121006f_49472",29,"Female","Master","UK","Caucasian","31/07/2022","08:28:21",39.1869333333333,0.4056,"1920x927",59.35,"firefox","102.0.0","Desktop","Windows 10","White",1,2,45,"White_str-16.67_diff-15.0",-16.6666666666667,"-1",15,"arrowright",0,647,667,1
"5bce155e561901000121006f_49472",29,"Female","Master","UK","Caucasian","31/07/2022","08:28:21",39.1869333333333,0.4056,"1920x927",59.35,"firefox","102.0.0","Desktop","Windows 10","White",1,2,46,"White_str25.0_diff-20.0",25,"-1",20,"arrowright",0,482,1890,1
"5bce155e561901000121006f_49472",29,"Female","Master","UK","Caucasian","31/07/2022","08:28:21",39.1869333333333,0.4056,"1920x927",59.35,"firefox","102.0.0","Desktop","Windows 10","White",1,2,47,"White_str-16.67_diff-20.0",-16.6666666666667,"-1",20,"arrowright",0,252,718,1
"5bce155e561901000121006f_49472",29,"Female","Master","UK","Caucasian","31/07/2022","08:28:21",39.1869333333333,0.4056,"1920x927",59.35,"firefox","102.0.0","Desktop","Windows 10","White",1,2,48,"White_str0.0_diff-5.0",0,"-1",5,"arrowright",0,740,781,1
"5bce155e561901000121006f_49472",29,"Female","Master","UK","Caucasian","31/07/2022","08:28:21",39.1869333333333,0.4056,"1920x927",59.35,"firefox","102.0.0","Desktop","Windows 10","White",1,2,49,"White_str16.67_diff-5.0",16.6666666666667,"-1",5,"arrowright",0,545,3503,1
"5bce155e561901000121006f_49472",29,"Female","Master","UK","Caucasian","31/07/2022","08:28:21",39.1869333333333,0.4056,"1920x927",59.35,"firefox","102.0.0","Desktop","Windows 10","White",1,2,50,"White_str-16.67_diff5.0",-16.6666666666667,"1",5,"arrowleft",0,990,642,1
"5bce155e561901000121006f_49472",29,"Female","Master","UK","Caucasian","31/07/2022","08:28:21",39.1869333333333,0.4056,"1920x927",59.35,"firefox","102.0.0","Desktop","Windows 10","White",1,2,51,"White_str-8.33_diff-15.0",-8.33333333333333,"-1",15,"arrowright",0,776,598,1
"5bce155e561901000121006f_49472",29,"Female","Master","UK","Caucasian","31/07/2022","08:28:21",39.1869333333333,0.4056,"1920x927",59.35,"firefox","102.0.0","Desktop","Windows 10","White",1,2,52,"White_str8.33_diff5.0",8.33333333333334,"1",5,"arrowleft",0,320,1871,1
"5bce155e561901000121006f_49472",29,"Female","Master","UK","Caucasian","31/07/2022","08:28:21",39.1869333333333,0.4056,"1920x927",59.35,"firefox","102.0.0","Desktop","Windows 10","White",1,2,53,"White_str-25.0_diff10.0",-25,"1",10,"arrowleft",0,686,898,1
"5bce155e561901000121006f_49472",29,"Female","Master","UK","Caucasian","31/07/2022","08:28:21",39.1869333333333,0.4056,"1920x927",59.35,"firefox","102.0.0","Desktop","Windows 10","White",1,2,54,"White_str16.67_diff5.0",16.6666666666667,"1",5,"arrowright",1,597,3031,1
"5bce155e561901000121006f_49472",29,"Female","Master","UK","Caucasian","31/07/2022","08:28:21",39.1869333333333,0.4056,"1920x927",59.35,"firefox","102.0.0","Desktop","Windows 10","White",1,2,55,"White_str-8.33_diff-20.0",-8.33333333333333,"-1",20,"arrowright",0,375,745,1
"5bce155e561901000121006f_49472",29,"Female","Master","UK","Caucasian","31/07/2022","08:28:21",39.1869333333333,0.4056,"1920x927",59.35,"firefox","102.0.0","Desktop","Windows 10","White",1,2,56,"White_str16.67_diff10.0",16.6666666666667,"1",10,"arrowleft",0,805,2362,1
"5bce155e561901000121006f_49472",29,"Female","Master","UK","Caucasian","31/07/2022","08:28:21",39.1869333333333,0.4056,"1920x927",59.35,"firefox","102.0.0","Desktop","Windows 10","Contrast",1,3,1,"Contrast_str36.0_diff15.0",36,"1",15,"arrowdown",1,650,724,1
"5bce155e561901000121006f_49472",29,"Female","Master","UK","Caucasian","31/07/2022","08:28:21",39.1869333333333,0.4056,"1920x927",59.35,"firefox","102.0.0","Desktop","Windows 10","Contrast",1,3,2,"Contrast_str24.0_diff-10.0",24,"-1",10,"arrowdown",0,322,3569,1
"5bce155e561901000121006f_49472",29,"Female","Master","UK","Caucasian","31/07/2022","08:28:21",39.1869333333333,0.4056,"1920x927",59.35,"firefox","102.0.0","Desktop","Windows 10","Contrast",1,3,3,"Contrast_str-36.0_diff5.0",-36,"1",5,"arrowup",0,686,1230,1
"5bce155e561901000121006f_49472",29,"Female","Master","UK","Caucasian","31/07/2022","08:28:21",39.1869333333333,0.4056,"1920x927",59.35,"firefox","102.0.0","Desktop","Windows 10","Contrast",1,3,4,"Contrast_str-24.0_diff-20.0",-24,"-1",20,"arrowdown",0,663,1202,1
"5bce155e561901000121006f_49472",29,"Female","Master","UK","Caucasian","31/07/2022","08:28:21",39.1869333333333,0.4056,"1920x927",59.35,"firefox","102.0.0","Desktop","Windows 10","Contrast",1,3,5,"Contrast_str12.0_diff15.0",12,"1",15,"arrowup",0,627,854,1
"5bce155e561901000121006f_49472",29,"Female","Master","UK","Caucasian","31/07/2022","08:28:21",39.1869333333333,0.4056,"1920x927",59.35,"firefox","102.0.0","Desktop","Windows 10","Contrast",1,3,6,"Contrast_str36.0_diff-5.0",36,"-1",5,"arrowup",1,390,2796,1
"5bce155e561901000121006f_49472",29,"Female","Master","UK","Caucasian","31/07/2022","08:28:21",39.1869333333333,0.4056,"1920x927",59.35,"firefox","102.0.0","Desktop","Windows 10","Contrast",1,3,7,"Contrast_str-36.0_diff-15.0",-36,"-1",15,"arrowdown",0,805,876,1
"5bce155e561901000121006f_49472",29,"Female","Master","UK","Caucasian","31/07/2022","08:28:21",39.1869333333333,0.4056,"1920x927",59.35,"firefox","102.0.0","Desktop","Windows 10","Contrast",1,3,8,"Contrast_str12.0_diff-5.0",12,"-1",5,"arrowup",1,748,3746,1
"5bce155e561901000121006f_49472",29,"Female","Master","UK","Caucasian","31/07/2022","08:28:21",39.1869333333333,0.4056,"1920x927",59.35,"firefox","102.0.0","Desktop","Windows 10","Contrast",1,3,9,"Contrast_str0.0_diff10.0",0,"1",10,"arrowup",0,795,691,1
"5bce155e561901000121006f_49472",29,"Female","Master","UK","Caucasian","31/07/2022","08:28:21",39.1869333333333,0.4056,"1920x927",59.35,"firefox","102.0.0","Desktop","Windows 10","Contrast",1,3,10,"Contrast_str24.0_diff-15.0",24,"-1",15,"arrowdown",0,422,2187,1
"5bce155e561901000121006f_49472",29,"Female","Master","UK","Caucasian","31/07/2022","08:28:21",39.1869333333333,0.4056,"1920x927",59.35,"firefox","102.0.0","Desktop","Windows 10","Contrast",1,3,11,"Contrast_str24.0_diff-5.0",24,"-1",5,"arrowup",1,442,1764,1
"5bce155e561901000121006f_49472",29,"Female","Master","UK","Caucasian","31/07/2022","08:28:21",39.1869333333333,0.4056,"1920x927",59.35,"firefox","102.0.0","Desktop","Windows 10","Contrast",1,3,12,"Contrast_str0.0_diff-20.0",0,"-1",20,"arrowdown",0,795,640,1
"5bce155e561901000121006f_49472",29,"Female","Master","UK","Caucasian","31/07/2022","08:28:21",39.1869333333333,0.4056,"1920x927",59.35,"firefox","102.0.0","Desktop","Windows 10","Contrast",1,3,13,"Contrast_str36.0_diff10.0",36,"1",10,"arrowup",0,510,3847,1
"5bce155e561901000121006f_49472",29,"Female","Master","UK","Caucasian","31/07/2022","08:28:21",39.1869333333333,0.4056,"1920x927",59.35,"firefox","102.0.0","Desktop","Windows 10","Contrast",1,3,14,"Contrast_str-12.0_diff15.0",-12,"1",15,"arrowup",0,646,3919,1
"5bce155e561901000121006f_49472",29,"Female","Master","UK","Caucasian","31/07/2022","08:28:21",39.1869333333333,0.4056,"1920x927",59.35,"firefox","102.0.0","Desktop","Windows 10","Contrast",1,3,15,"Contrast_str-24.0_diff10.0",-24,"1",10,"arrowup",0,409,1005,1
"5bce155e561901000121006f_49472",29,"Female","Master","UK","Caucasian","31/07/2022","08:28:21",39.1869333333333,0.4056,"1920x927",59.35,"firefox","102.0.0","Desktop","Windows 10","Contrast",1,3,16,"Contrast_str-12.0_diff10.0",-12,"1",10,"arrowup",0,515,638,1
"5bce155e561901000121006f_49472",29,"Female","Master","UK","Caucasian","31/07/2022","08:28:21",39.1869333333333,0.4056,"1920x927",59.35,"firefox","102.0.0","Desktop","Windows 10","Contrast",1,3,17,"Contrast_str36.0_diff-15.0",36,"-1",15,"arrowdown",0,967,820,1
"5bce155e561901000121006f_49472",29,"Female","Master","UK","Caucasian","31/07/2022","08:28:21",39.1869333333333,0.4056,"1920x927",59.35,"firefox","102.0.0","Desktop","Windows 10","Contrast",1,3,18,"Contrast_str-24.0_diff20.0",-24,"1",20,"arrowup",0,532,636,1
"5bce155e561901000121006f_49472",29,"Female","Master","UK","Caucasian","31/07/2022","08:28:21",39.1869333333333,0.4056,"1920x927",59.35,"firefox","102.0.0","Desktop","Windows 10","Contrast",1,3,19,"Contrast_str12.0_diff5.0",12,"1",5,"arrowup",0,447,1318,1
"5bce155e561901000121006f_49472",29,"Female","Master","UK","Caucasian","31/07/2022","08:28:21",39.1869333333333,0.4056,"1920x927",59.35,"firefox","102.0.0","Desktop","Windows 10","Contrast",1,3,20,"Contrast_str12.0_diff-15.0",12,"-1",15,"arrowdown",0,549,726,1
"5bce155e561901000121006f_49472",29,"Female","Master","UK","Caucasian","31/07/2022","08:28:21",39.1869333333333,0.4056,"1920x927",59.35,"firefox","102.0.0","Desktop","Windows 10","Contrast",1,3,21,"Contrast_str-36.0_diff20.0",-36,"1",20,"arrowup",0,486,661,1
"5bce155e561901000121006f_49472",29,"Female","Master","UK","Caucasian","31/07/2022","08:28:21",39.1869333333333,0.4056,"1920x927",59.35,"firefox","102.0.0","Desktop","Windows 10","Contrast",1,3,22,"Contrast_str0.0_diff-5.0",0,"-1",5,"arrowdown",0,352,733,1
"5bce155e561901000121006f_49472",29,"Female","Master","UK","Caucasian","31/07/2022","08:28:21",39.1869333333333,0.4056,"1920x927",59.35,"firefox","102.0.0","Desktop","Windows 10","Contrast",1,3,23,"Contrast_str36.0_diff5.0",36,"1",5,"arrowup",0,940,1130,1
"5bce155e561901000121006f_49472",29,"Female","Master","UK","Caucasian","31/07/2022","08:28:21",39.1869333333333,0.4056,"1920x927",59.35,"firefox","102.0.0","Desktop","Windows 10","Contrast",1,3,24,"Contrast_str24.0_diff20.0",24,"1",20,"arrowup",0,939,1104,1
"5bce155e561901000121006f_49472",29,"Female","Master","UK","Caucasian","31/07/2022","08:28:21",39.1869333333333,0.4056,"1920x927",59.35,"firefox","102.0.0","Desktop","Windows 10","Contrast",1,3,25,"Contrast_str-24.0_diff5.0",-24,"1",5,"arrowup",0,766,734,1
"5bce155e561901000121006f_49472",29,"Female","Master","UK","Caucasian","31/07/2022","08:28:21",39.1869333333333,0.4056,"1920x927",59.35,"firefox","102.0.0","Desktop","Windows 10","Contrast",1,3,26,"Contrast_str-24.0_diff-5.0",-24,"-1",5,"arrowdown",0,841,716,1
"5bce155e561901000121006f_49472",29,"Female","Master","UK","Caucasian","31/07/2022","08:28:21",39.1869333333333,0.4056,"1920x927",59.35,"firefox","102.0.0","Desktop","Windows 10","Contrast",1,3,27,"Contrast_str12.0_diff20.0",12,"1",20,"arrowup",0,983,604,1
"5bce155e561901000121006f_49472",29,"Female","Master","UK","Caucasian","31/07/2022","08:28:21",39.1869333333333,0.4056,"1920x927",59.35,"firefox","102.0.0","Desktop","Windows 10","Contrast",1,3,28,"Contrast_str-12.0_diff-10.0",-12,"-1",10,"arrowdown",0,579,797,1
"5bce155e561901000121006f_49472",29,"Female","Master","UK","Caucasian","31/07/2022","08:28:21",39.1869333333333,0.4056,"1920x927",59.35,"firefox","102.0.0","Desktop","Windows 10","Contrast",1,3,29,"Contrast_str0.0_diff-15.0",0,"-1",15,"arrowdown",0,959,751,1
"5bce155e561901000121006f_49472",29,"Female","Master","UK","Caucasian","31/07/2022","08:28:21",39.1869333333333,0.4056,"1920x927",59.35,"firefox","102.0.0","Desktop","Windows 10","Contrast",1,3,30,"Contrast_str-36.0_diff-5.0",-36,"-1",5,"arrowup",1,746,1009,1
"5bce155e561901000121006f_49472",29,"Female","Master","UK","Caucasian","31/07/2022","08:28:21",39.1869333333333,0.4056,"1920x927",59.35,"firefox","102.0.0","Desktop","Windows 10","Contrast",1,3,31,"Contrast_str24.0_diff10.0",24,"1",10,"arrowdown",1,276,1362,1
"5bce155e561901000121006f_49472",29,"Female","Master","UK","Caucasian","31/07/2022","08:28:21",39.1869333333333,0.4056,"1920x927",59.35,"firefox","102.0.0","Desktop","Windows 10","Contrast",1,3,32,"Contrast_str-36.0_diff-20.0",-36,"-1",20,"arrowdown",0,713,810,1
"5bce155e561901000121006f_49472",29,"Female","Master","UK","Caucasian","31/07/2022","08:28:21",39.1869333333333,0.4056,"1920x927",59.35,"firefox","102.0.0","Desktop","Windows 10","Contrast",1,3,33,"Contrast_str24.0_diff15.0",24,"1",15,"arrowup",0,438,705,1
"5bce155e561901000121006f_49472",29,"Female","Master","UK","Caucasian","31/07/2022","08:28:21",39.1869333333333,0.4056,"1920x927",59.35,"firefox","102.0.0","Desktop","Windows 10","Contrast",1,3,34,"Contrast_str-36.0_diff10.0",-36,"1",10,"arrowup",0,538,638,1
"5bce155e561901000121006f_49472",29,"Female","Master","UK","Caucasian","31/07/2022","08:28:21",39.1869333333333,0.4056,"1920x927",59.35,"firefox","102.0.0","Desktop","Windows 10","Contrast",1,3,35,"Contrast_str0.0_diff20.0",0,"1",20,"arrowup",0,442,633,1
"5bce155e561901000121006f_49472",29,"Female","Master","UK","Caucasian","31/07/2022","08:28:21",39.1869333333333,0.4056,"1920x927",59.35,"firefox","102.0.0","Desktop","Windows 10","Contrast",1,3,36,"Contrast_str12.0_diff10.0",12,"1",10,"arrowup",0,292,1161,1
"5bce155e561901000121006f_49472",29,"Female","Master","UK","Caucasian","31/07/2022","08:28:21",39.1869333333333,0.4056,"1920x927",59.35,"firefox","102.0.0","Desktop","Windows 10","Contrast",1,3,37,"Contrast_str12.0_diff-20.0",12,"-1",20,"arrowdown",0,817,764,1
"5bce155e561901000121006f_49472",29,"Female","Master","UK","Caucasian","31/07/2022","08:28:21",39.1869333333333,0.4056,"1920x927",59.35,"firefox","102.0.0","Desktop","Windows 10","Contrast",1,3,38,"Contrast_str0.0_diff15.0",0,"1",15,"arrowup",0,629,627,1
"5bce155e561901000121006f_49472",29,"Female","Master","UK","Caucasian","31/07/2022","08:28:21",39.1869333333333,0.4056,"1920x927",59.35,"firefox","102.0.0","Desktop","Windows 10","Contrast",1,3,39,"Contrast_str-12.0_diff-20.0",-12,"-1",20,"arrowdown",0,873,647,1
"5bce155e561901000121006f_49472",29,"Female","Master","UK","Caucasian","31/07/2022","08:28:21",39.1869333333333,0.4056,"1920x927",59.35,"firefox","102.0.0","Desktop","Windows 10","Contrast",1,3,40,"Contrast_str-12.0_diff5.0",-12,"1",5,"arrowup",0,441,1126,1
"5bce155e561901000121006f_49472",29,"Female","Master","UK","Caucasian","31/07/2022","08:28:21",39.1869333333333,0.4056,"1920x927",59.35,"firefox","102.0.0","Desktop","Windows 10","Contrast",1,3,41,"Contrast_str-12.0_diff-15.0",-12,"-1",15,"arrowdown",0,848,564,1
"5bce155e561901000121006f_49472",29,"Female","Master","UK","Caucasian","31/07/2022","08:28:21",39.1869333333333,0.4056,"1920x927",59.35,"firefox","102.0.0","Desktop","Windows 10","Contrast",1,3,42,"Contrast_str-24.0_diff-10.0",-24,"-1",10,"arrowdown",0,742,804,1
"5bce155e561901000121006f_49472",29,"Female","Master","UK","Caucasian","31/07/2022","08:28:21",39.1869333333333,0.4056,"1920x927",59.35,"firefox","102.0.0","Desktop","Windows 10","Contrast",1,3,43,"Contrast_str36.0_diff20.0",36,"1",20,"arrowup",0,755,838,1
"5bce155e561901000121006f_49472",29,"Female","Master","UK","Caucasian","31/07/2022","08:28:21",39.1869333333333,0.4056,"1920x927",59.35,"firefox","102.0.0","Desktop","Windows 10","Contrast",1,3,44,"Contrast_str-24.0_diff15.0",-24,"1",15,"arrowup",0,754,626,1
"5bce155e561901000121006f_49472",29,"Female","Master","UK","Caucasian","31/07/2022","08:28:21",39.1869333333333,0.4056,"1920x927",59.35,"firefox","102.0.0","Desktop","Windows 10","Contrast",1,3,45,"Contrast_str12.0_diff-10.0",12,"-1",10,"arrowdown",0,870,813,1
"5bce155e561901000121006f_49472",29,"Female","Master","UK","Caucasian","31/07/2022","08:28:21",39.1869333333333,0.4056,"1920x927",59.35,"firefox","102.0.0","Desktop","Windows 10","Contrast",1,3,46,"Contrast_str-12.0_diff20.0",-12,"1",20,"arrowup",0,385,779,1
"5bce155e561901000121006f_49472",29,"Female","Master","UK","Caucasian","31/07/2022","08:28:21",39.1869333333333,0.4056,"1920x927",59.35,"firefox","102.0.0","Desktop","Windows 10","Contrast",1,3,47,"Contrast_str-36.0_diff-10.0",-36,"-1",10,"arrowdown",0,744,708,1
"5bce155e561901000121006f_49472",29,"Female","Master","UK","Caucasian","31/07/2022","08:28:21",39.1869333333333,0.4056,"1920x927",59.35,"firefox","102.0.0","Desktop","Windows 10","Contrast",1,3,48,"Contrast_str24.0_diff-20.0",24,"-1",20,"arrowdown",0,609,1487,1
"5bce155e561901000121006f_49472",29,"Female","Master","UK","Caucasian","31/07/2022","08:28:21",39.1869333333333,0.4056,"1920x927",59.35,"firefox","102.0.0","Desktop","Windows 10","Contrast",1,3,49,"Contrast_str-12.0_diff-5.0",-12,"-1",5,"arrowdown",0,341,836,1
"5bce155e561901000121006f_49472",29,"Female","Master","UK","Caucasian","31/07/2022","08:28:21",39.1869333333333,0.4056,"1920x927",59.35,"firefox","102.0.0","Desktop","Windows 10","Contrast",1,3,50,"Contrast_str-24.0_diff-15.0",-24,"-1",15,"arrowdown",0,970,612,1
"5bce155e561901000121006f_49472",29,"Female","Master","UK","Caucasian","31/07/2022","08:28:21",39.1869333333333,0.4056,"1920x927",59.35,"firefox","102.0.0","Desktop","Windows 10","Contrast",1,3,51,"Contrast_str24.0_diff5.0",24,"1",5,"arrowdown",1,677,2314,1
"5bce155e561901000121006f_49472",29,"Female","Master","UK","Caucasian","31/07/2022","08:28:21",39.1869333333333,0.4056,"1920x927",59.35,"firefox","102.0.0","Desktop","Windows 10","Contrast",1,3,52,"Contrast_str36.0_diff-20.0",36,"-1",20,"arrowdown",0,819,1030,1
"5bce155e561901000121006f_49472",29,"Female","Master","UK","Caucasian","31/07/2022","08:28:21",39.1869333333333,0.4056,"1920x927",59.35,"firefox","102.0.0","Desktop","Windows 10","Contrast",1,3,53,"Contrast_str36.0_diff-10.0",36,"-1",10,"arrowdown",0,775,1040,1
"5bce155e561901000121006f_49472",29,"Female","Master","UK","Caucasian","31/07/2022","08:28:21",39.1869333333333,0.4056,"1920x927",59.35,"firefox","102.0.0","Desktop","Windows 10","Contrast",1,3,54,"Contrast_str-36.0_diff15.0",-36,"1",15,"arrowup",0,856,690,1
"5bce155e561901000121006f_49472",29,"Female","Master","UK","Caucasian","31/07/2022","08:28:21",39.1869333333333,0.4056,"1920x927",59.35,"firefox","102.0.0","Desktop","Windows 10","Contrast",1,3,55,"Contrast_str0.0_diff5.0",0,"1",5,"arrowup",0,879,773,1
"5bce155e561901000121006f_49472",29,"Female","Master","UK","Caucasian","31/07/2022","08:28:21",39.1869333333333,0.4056,"1920x927",59.35,"firefox","102.0.0","Desktop","Windows 10","Contrast",1,3,56,"Contrast_str0.0_diff-10.0",0,"-1",10,"arrowdown",0,326,675,1
"5bce155e561901000121006f_49472",29,"Female","Master","UK","Caucasian","31/07/2022","08:28:21",39.1869333333333,0.4056,"1920x927",59.35,"firefox","102.0.0","Desktop","Windows 10","Poggendorff",1,4,1,"Poggendorff_str0.0_diff-0.21",0,"-1",0.21,"arrowdown",0,367,1947,1
"5bce155e561901000121006f_49472",29,"Female","Master","UK","Caucasian","31/07/2022","08:28:21",39.1869333333333,0.4056,"1920x927",59.35,"firefox","102.0.0","Desktop","Windows 10","Poggendorff",1,4,2,"Poggendorff_str66.0_diff0.3",66,"1",0.3,"arrowdown",1,527,3079,1
"5bce155e561901000121006f_49472",29,"Female","Master","UK","Caucasian","31/07/2022","08:28:21",39.1869333333333,0.4056,"1920x927",59.35,"firefox","102.0.0","Desktop","Windows 10","Poggendorff",1,4,3,"Poggendorff_str22.0_diff0.12",22,"1",0.12,"arrowup",0,766,1115,1
"5bce155e561901000121006f_49472",29,"Female","Master","UK","Caucasian","31/07/2022","08:28:21",39.1869333333333,0.4056,"1920x927",59.35,"firefox","102.0.0","Desktop","Windows 10","Poggendorff",1,4,4,"Poggendorff_str0.0_diff0.03",0,"1",0.03,"arrowup",0,572,882,1
"5bce155e561901000121006f_49472",29,"Female","Master","UK","Caucasian","31/07/2022","08:28:21",39.1869333333333,0.4056,"1920x927",59.35,"firefox","102.0.0","Desktop","Windows 10","Poggendorff",1,4,5,"Poggendorff_str44.0_diff0.12",44,"1",0.12,"arrowdown",1,414,3313,1
"5bce155e561901000121006f_49472",29,"Female","Master","UK","Caucasian","31/07/2022","08:28:21",39.1869333333333,0.4056,"1920x927",59.35,"firefox","102.0.0","Desktop","Windows 10","Poggendorff",1,4,6,"Poggendorff_str-44.0_diff0.03",-44,"1",0.03,"arrowup",0,436,944,1
"5bce155e561901000121006f_49472",29,"Female","Master","UK","Caucasian","31/07/2022","08:28:21",39.1869333333333,0.4056,"1920x927",59.35,"firefox","102.0.0","Desktop","Windows 10","Poggendorff",1,4,7,"Poggendorff_str0.0_diff0.21",0,"1",0.21,"arrowup",0,840,694,1
"5bce155e561901000121006f_49472",29,"Female","Master","UK","Caucasian","31/07/2022","08:28:21",39.1869333333333,0.4056,"1920x927",59.35,"firefox","102.0.0","Desktop","Windows 10","Poggendorff",1,4,8,"Poggendorff_str66.0_diff0.12",66,"1",0.12,"arrowdown",1,602,1505,1
"5bce155e561901000121006f_49472",29,"Female","Master","UK","Caucasian","31/07/2022","08:28:21",39.1869333333333,0.4056,"1920x927",59.35,"firefox","102.0.0","Desktop","Windows 10","Poggendorff",1,4,9,"Poggendorff_str-22.0_diff-0.3",-22,"-1",0.3,"arrowdown",0,642,1202,1
"5bce155e561901000121006f_49472",29,"Female","Master","UK","Caucasian","31/07/2022","08:28:21",39.1869333333333,0.4056,"1920x927",59.35,"firefox","102.0.0","Desktop","Windows 10","Poggendorff",1,4,10,"Poggendorff_str-44.0_diff-0.21",-44,"-1",0.21,"arrowdown",0,276,620,1
"5bce155e561901000121006f_49472",29,"Female","Master","UK","Caucasian","31/07/2022","08:28:21",39.1869333333333,0.4056,"1920x927",59.35,"firefox","102.0.0","Desktop","Windows 10","Poggendorff",1,4,11,"Poggendorff_str22.0_diff-0.12",22,"-1",0.12,"arrowdown",0,676,1045,1
"5bce155e561901000121006f_49472",29,"Female","Master","UK","Caucasian","31/07/2022","08:28:21",39.1869333333333,0.4056,"1920x927",59.35,"firefox","102.0.0","Desktop","Windows 10","Poggendorff",1,4,12,"Poggendorff_str-22.0_diff0.12",-22,"1",0.12,"arrowup",0,364,810,1
"5bce155e561901000121006f_49472",29,"Female","Master","UK","Caucasian","31/07/2022","08:28:21",39.1869333333333,0.4056,"1920x927",59.35,"firefox","102.0.0","Desktop","Windows 10","Poggendorff",1,4,13,"Poggendorff_str66.0_diff-0.12",66,"-1",0.12,"arrowup",1,910,1031,1
"5bce155e561901000121006f_49472",29,"Female","Master","UK","Caucasian","31/07/2022","08:28:21",39.1869333333333,0.4056,"1920x927",59.35,"firefox","102.0.0","Desktop","Windows 10","Poggendorff",1,4,14,"Poggendorff_str66.0_diff0.03",66,"1",0.03,"arrowdown",1,331,1154,1
"5bce155e561901000121006f_49472",29,"Female","Master","UK","Caucasian","31/07/2022","08:28:21",39.1869333333333,0.4056,"1920x927",59.35,"firefox","102.0.0","Desktop","Windows 10","Poggendorff",1,4,15,"Poggendorff_str44.0_diff-0.03",44,"-1",0.03,"arrowup",1,716,1239,1
"5bce155e561901000121006f_49472",29,"Female","Master","UK","Caucasian","31/07/2022","08:28:21",39.1869333333333,0.4056,"1920x927",59.35,"firefox","102.0.0","Desktop","Windows 10","Poggendorff",1,4,16,"Poggendorff_str-44.0_diff0.3",-44,"1",0.3,"arrowup",0,971,606,1
"5bce155e561901000121006f_49472",29,"Female","Master","UK","Caucasian","31/07/2022","08:28:21",39.1869333333333,0.4056,"1920x927",59.35,"firefox","102.0.0","Desktop","Windows 10","Poggendorff",1,4,17,"Poggendorff_str44.0_diff0.03",44,"1",0.03,"arrowdown",1,632,1146,1
"5bce155e561901000121006f_49472",29,"Female","Master","UK","Caucasian","31/07/2022","08:28:21",39.1869333333333,0.4056,"1920x927",59.35,"firefox","102.0.0","Desktop","Windows 10","Poggendorff",1,4,18,"Poggendorff_str22.0_diff-0.3",22,"-1",0.3,"arrowdown",0,332,1324,1
"5bce155e561901000121006f_49472",29,"Female","Master","UK","Caucasian","31/07/2022","08:28:21",39.1869333333333,0.4056,"1920x927",59.35,"firefox","102.0.0","Desktop","Windows 10","Poggendorff",1,4,19,"Poggendorff_str66.0_diff-0.03",66,"-1",0.03,"arrowup",1,744,2938,1
"5bce155e561901000121006f_49472",29,"Female","Master","UK","Caucasian","31/07/2022","08:28:21",39.1869333333333,0.4056,"1920x927",59.35,"firefox","102.0.0","Desktop","Windows 10","Poggendorff",1,4,20,"Poggendorff_str-44.0_diff-0.03",-44,"-1",0.03,"arrowdown",0,327,1665,1
"5bce155e561901000121006f_49472",29,"Female","Master","UK","Caucasian","31/07/2022","08:28:21",39.1869333333333,0.4056,"1920x927",59.35,"firefox","102.0.0","Desktop","Windows 10","Poggendorff",1,4,21,"Poggendorff_str-66.0_diff-0.12",-66,"-1",0.12,"arrowdown",0,888,978,1
"5bce155e561901000121006f_49472",29,"Female","Master","UK","Caucasian","31/07/2022","08:28:21",39.1869333333333,0.4056,"1920x927",59.35,"firefox","102.0.0","Desktop","Windows 10","Poggendorff",1,4,22,"Poggendorff_str-22.0_diff0.3",-22,"1",0.3,"arrowup",0,807,826,1
"5bce155e561901000121006f_49472",29,"Female","Master","UK","Caucasian","31/07/2022","08:28:21",39.1869333333333,0.4056,"1920x927",59.35,"firefox","102.0.0","Desktop","Windows 10","Poggendorff",1,4,23,"Poggendorff_str-66.0_diff0.21",-66,"1",0.21,"arrowup",0,353,811,1
"5bce155e561901000121006f_49472",29,"Female","Master","UK","Caucasian","31/07/2022","08:28:21",39.1869333333333,0.4056,"1920x927",59.35,"firefox","102.0.0","Desktop","Windows 10","Poggendorff",1,4,24,"Poggendorff_str22.0_diff0.03",22,"1",0.03,"arrowdown",1,810,2686,1
"5bce155e561901000121006f_49472",29,"Female","Master","UK","Caucasian","31/07/2022","08:28:21",39.1869333333333,0.4056,"1920x927",59.35,"firefox","102.0.0","Desktop","Windows 10","Poggendorff",1,4,25,"Poggendorff_str0.0_diff-0.12",0,"-1",0.12,"arrowdown",0,544,994,1
"5bce155e561901000121006f_49472",29,"Female","Master","UK","Caucasian","31/07/2022","08:28:21",39.1869333333333,0.4056,"1920x927",59.35,"firefox","102.0.0","Desktop","Windows 10","Poggendorff",1,4,26,"Poggendorff_str44.0_diff-0.12",44,"-1",0.12,"arrowup",1,813,1371,1
"5bce155e561901000121006f_49472",29,"Female","Master","UK","Caucasian","31/07/2022","08:28:21",39.1869333333333,0.4056,"1920x927",59.35,"firefox","102.0.0","Desktop","Windows 10","Poggendorff",1,4,27,"Poggendorff_str0.0_diff-0.03",0,"-1",0.03,"arrowdown",0,330,1058,1
"5bce155e561901000121006f_49472",29,"Female","Master","UK","Caucasian","31/07/2022","08:28:21",39.1869333333333,0.4056,"1920x927",59.35,"firefox","102.0.0","Desktop","Windows 10","Poggendorff",1,4,28,"Poggendorff_str-22.0_diff-0.12",-22,"-1",0.12,"arrowdown",0,427,2469,1
"5bce155e561901000121006f_49472",29,"Female","Master","UK","Caucasian","31/07/2022","08:28:21",39.1869333333333,0.4056,"1920x927",59.35,"firefox","102.0.0","Desktop","Windows 10","Poggendorff",1,4,29,"Poggendorff_str-66.0_diff-0.03",-66,"-1",0.03,"arrowdown",0,636,697,1
"5bce155e561901000121006f_49472",29,"Female","Master","UK","Caucasian","31/07/2022","08:28:21",39.1869333333333,0.4056,"1920x927",59.35,"firefox","102.0.0","Desktop","Windows 10","Poggendorff",1,4,30,"Poggendorff_str66.0_diff-0.3",66,"-1",0.3,"arrowup",1,760,791,1
"5bce155e561901000121006f_49472",29,"Female","Master","UK","Caucasian","31/07/2022","08:28:21",39.1869333333333,0.4056,"1920x927",59.35,"firefox","102.0.0","Desktop","Windows 10","Poggendorff",1,4,31,"Poggendorff_str44.0_diff-0.3",44,"-1",0.3,"arrowdown",0,536,1659,1
"5bce155e561901000121006f_49472",29,"Female","Master","UK","Caucasian","31/07/2022","08:28:21",39.1869333333333,0.4056,"1920x927",59.35,"firefox","102.0.0","Desktop","Windows 10","Poggendorff",1,4,32,"Poggendorff_str-66.0_diff-0.21",-66,"-1",0.21,"arrowdown",0,495,2902,1
"5bce155e561901000121006f_49472",29,"Female","Master","UK","Caucasian","31/07/2022","08:28:21",39.1869333333333,0.4056,"1920x927",59.35,"firefox","102.0.0","Desktop","Windows 10","Poggendorff",1,4,33,"Poggendorff_str44.0_diff0.3",44,"1",0.3,"arrowup",0,657,933,1
"5bce155e561901000121006f_49472",29,"Female","Master","UK","Caucasian","31/07/2022","08:28:21",39.1869333333333,0.4056,"1920x927",59.35,"firefox","102.0.0","Desktop","Windows 10","Poggendorff",1,4,34,"Poggendorff_str44.0_diff0.21",44,"1",0.21,"arrowup",0,366,890,1
"5bce155e561901000121006f_49472",29,"Female","Master","UK","Caucasian","31/07/2022","08:28:21",39.1869333333333,0.4056,"1920x927",59.35,"firefox","102.0.0","Desktop","Windows 10","Poggendorff",1,4,35,"Poggendorff_str-66.0_diff-0.3",-66,"-1",0.3,"arrowdown",0,503,1430,1
"5bce155e561901000121006f_49472",29,"Female","Master","UK","Caucasian","31/07/2022","08:28:21",39.1869333333333,0.4056,"1920x927",59.35,"firefox","102.0.0","Desktop","Windows 10","Poggendorff",1,4,36,"Poggendorff_str66.0_diff0.21",66,"1",0.21,"arrowdown",1,376,720,1
"5bce155e561901000121006f_49472",29,"Female","Master","UK","Caucasian","31/07/2022","08:28:21",39.1869333333333,0.4056,"1920x927",59.35,"firefox","102.0.0","Desktop","Windows 10","Poggendorff",1,4,37,"Poggendorff_str-22.0_diff-0.21",-22,"-1",0.21,"arrowdown",0,883,707,1
"5bce155e561901000121006f_49472",29,"Female","Master","UK","Caucasian","31/07/2022","08:28:21",39.1869333333333,0.4056,"1920x927",59.35,"firefox","102.0.0","Desktop","Windows 10","Poggendorff",1,4,38,"Poggendorff_str-44.0_diff0.12",-44,"1",0.12,"arrowup",0,279,1523,1
"5bce155e561901000121006f_49472",29,"Female","Master","UK","Caucasian","31/07/2022","08:28:21",39.1869333333333,0.4056,"1920x927",59.35,"firefox","102.0.0","Desktop","Windows 10","Poggendorff",1,4,39,"Poggendorff_str22.0_diff-0.03",22,"-1",0.03,"arrowdown",0,938,3900,1
"5bce155e561901000121006f_49472",29,"Female","Master","UK","Caucasian","31/07/2022","08:28:21",39.1869333333333,0.4056,"1920x927",59.35,"firefox","102.0.0","Desktop","Windows 10","Poggendorff",1,4,40,"Poggendorff_str44.0_diff-0.21",44,"-1",0.21,"arrowdown",0,405,1331,1
"5bce155e561901000121006f_49472",29,"Female","Master","UK","Caucasian","31/07/2022","08:28:21",39.1869333333333,0.4056,"1920x927",59.35,"firefox","102.0.0","Desktop","Windows 10","Poggendorff",1,4,41,"Poggendorff_str-66.0_diff0.12",-66,"1",0.12,"arrowup",0,620,3370,1
"5bce155e561901000121006f_49472",29,"Female","Master","UK","Caucasian","31/07/2022","08:28:21",39.1869333333333,0.4056,"1920x927",59.35,"firefox","102.0.0","Desktop","Windows 10","Poggendorff",1,4,42,"Poggendorff_str0.0_diff0.3",0,"1",0.3,"arrowup",0,656,781,1
"5bce155e561901000121006f_49472",29,"Female","Master","UK","Caucasian","31/07/2022","08:28:21",39.1869333333333,0.4056,"1920x927",59.35,"firefox","102.0.0","Desktop","Windows 10","Poggendorff",1,4,43,"Poggendorff_str22.0_diff-0.21",22,"-1",0.21,"arrowdown",0,580,720,1
"5bce155e561901000121006f_49472",29,"Female","Master","UK","Caucasian","31/07/2022","08:28:21",39.1869333333333,0.4056,"1920x927",59.35,"firefox","102.0.0","Desktop","Windows 10","Poggendorff",1,4,44,"Poggendorff_str-44.0_diff-0.12",-44,"-1",0.12,"arrowdown",0,508,1335,1
"5bce155e561901000121006f_49472",29,"Female","Master","UK","Caucasian","31/07/2022","08:28:21",39.1869333333333,0.4056,"1920x927",59.35,"firefox","102.0.0","Desktop","Windows 10","Poggendorff",1,4,45,"Poggendorff_str-22.0_diff-0.03",-22,"-1",0.03,"arrowdown",0,289,874,1
"5bce155e561901000121006f_49472",29,"Female","Master","UK","Caucasian","31/07/2022","08:28:21",39.1869333333333,0.4056,"1920x927",59.35,"firefox","102.0.0","Desktop","Windows 10","Poggendorff",1,4,46,"Poggendorff_str-44.0_diff-0.3",-44,"-1",0.3,"arrowdown",0,931,562,1
"5bce155e561901000121006f_49472",29,"Female","Master","UK","Caucasian","31/07/2022","08:28:21",39.1869333333333,0.4056,"1920x927",59.35,"firefox","102.0.0","Desktop","Windows 10","Poggendorff",1,4,47,"Poggendorff_str-44.0_diff0.21",-44,"1",0.21,"arrowup",0,710,757,1
"5bce155e561901000121006f_49472",29,"Female","Master","UK","Caucasian","31/07/2022","08:28:21",39.1869333333333,0.4056,"1920x927",59.35,"firefox","102.0.0","Desktop","Windows 10","Poggendorff",1,4,48,"Poggendorff_str22.0_diff0.21",22,"1",0.21,"arrowup",0,329,1049,1
"5bce155e561901000121006f_49472",29,"Female","Master","UK","Caucasian","31/07/2022","08:28:21",39.1869333333333,0.4056,"1920x927",59.35,"firefox","102.0.0","Desktop","Windows 10","Poggendorff",1,4,49,"Poggendorff_str-22.0_diff0.21",-22,"1",0.21,"arrowup",0,388,649,1
"5bce155e561901000121006f_49472",29,"Female","Master","UK","Caucasian","31/07/2022","08:28:21",39.1869333333333,0.4056,"1920x927",59.35,"firefox","102.0.0","Desktop","Windows 10","Poggendorff",1,4,50,"Poggendorff_str66.0_diff-0.21",66,"-1",0.21,"arrowup",1,967,532,1
"5bce155e561901000121006f_49472",29,"Female","Master","UK","Caucasian","31/07/2022","08:28:21",39.1869333333333,0.4056,"1920x927",59.35,"firefox","102.0.0","Desktop","Windows 10","Poggendorff",1,4,51,"Poggendorff_str-22.0_diff0.03",-22,"1",0.03,"arrowup",0,294,750,1
"5bce155e561901000121006f_49472",29,"Female","Master","UK","Caucasian","31/07/2022","08:28:21",39.1869333333333,0.4056,"1920x927",59.35,"firefox","102.0.0","Desktop","Windows 10","Poggendorff",1,4,52,"Poggendorff_str-66.0_diff0.03",-66,"1",0.03,"arrowup",0,571,524,1
"5bce155e561901000121006f_49472",29,"Female","Master","UK","Caucasian","31/07/2022","08:28:21",39.1869333333333,0.4056,"1920x927",59.35,"firefox","102.0.0","Desktop","Windows 10","Poggendorff",1,4,53,"Poggendorff_str22.0_diff0.3",22,"1",0.3,"arrowup",0,636,516,1
"5bce155e561901000121006f_49472",29,"Female","Master","UK","Caucasian","31/07/2022","08:28:21",39.1869333333333,0.4056,"1920x927",59.35,"firefox","102.0.0","Desktop","Windows 10","Poggendorff",1,4,54,"Poggendorff_str0.0_diff-0.3",0,"-1",0.3,"arrowdown",0,976,572,1
"5bce155e561901000121006f_49472",29,"Female","Master","UK","Caucasian","31/07/2022","08:28:21",39.1869333333333,0.4056,"1920x927",59.35,"firefox","102.0.0","Desktop","Windows 10","Poggendorff",1,4,55,"Poggendorff_str0.0_diff0.12",0,"1",0.12,"arrowup",0,962,361,1
"5bce155e561901000121006f_49472",29,"Female","Master","UK","Caucasian","31/07/2022","08:28:21",39.1869333333333,0.4056,"1920x927",59.35,"firefox","102.0.0","Desktop","Windows 10","Poggendorff",1,4,56,"Poggendorff_str-66.0_diff0.3",-66,"1",0.3,"arrowup",0,692,782,1
"5bce155e561901000121006f_49472",29,"Female","Master","UK","Caucasian","31/07/2022","08:28:21",39.1869333333333,0.4056,"1920x927",59.35,"firefox","102.0.0","Desktop","Windows 10","Zöllner",1,5,1,"Zollner_str-56.67_diff0.2",-56.6666666666667,"1",0.2,"arrowright",0,508,3183,1
"5bce155e561901000121006f_49472",29,"Female","Master","UK","Caucasian","31/07/2022","08:28:21",39.1869333333333,0.4056,"1920x927",59.35,"firefox","102.0.0","Desktop","Windows 10","Zöllner",1,5,2,"Zollner_str85.0_diff-3.4",85,"-1",3.4,"arrowleft",0,725,2415,1
"5bce155e561901000121006f_49472",29,"Female","Master","UK","Caucasian","31/07/2022","08:28:21",39.1869333333333,0.4056,"1920x927",59.35,"firefox","102.0.0","Desktop","Windows 10","Zöllner",1,5,3,"Zollner_str-56.67_diff-3.4",-56.6666666666667,"-1",3.4,"arrowleft",0,797,800,1
"5bce155e561901000121006f_49472",29,"Female","Master","UK","Caucasian","31/07/2022","08:28:21",39.1869333333333,0.4056,"1920x927",59.35,"firefox","102.0.0","Desktop","Windows 10","Zöllner",1,5,4,"Zollner_str-85.0_diff0.2",-85,"1",0.2,"arrowleft",1,474,7085,1
"5bce155e561901000121006f_49472",29,"Female","Master","UK","Caucasian","31/07/2022","08:28:21",39.1869333333333,0.4056,"1920x927",59.35,"firefox","102.0.0","Desktop","Windows 10","Zöllner",1,5,5,"Zollner_str28.33_diff0.2",28.3333333333333,"1",0.2,"arrowright",0,906,1432,1
"5bce155e561901000121006f_49472",29,"Female","Master","UK","Caucasian","31/07/2022","08:28:21",39.1869333333333,0.4056,"1920x927",59.35,"firefox","102.0.0","Desktop","Windows 10","Zöllner",1,5,6,"Zollner_str-85.0_diff5.0",-85,"1",5,"arrowright",0,288,928,1
"5bce155e561901000121006f_49472",29,"Female","Master","UK","Caucasian","31/07/2022","08:28:21",39.1869333333333,0.4056,"1920x927",59.35,"firefox","102.0.0","Desktop","Windows 10","Zöllner",1,5,7,"Zollner_str85.0_diff0.2",85,"1",0.2,"arrowright",0,744,6546,1
"5bce155e561901000121006f_49472",29,"Female","Master","UK","Caucasian","31/07/2022","08:28:21",39.1869333333333,0.4056,"1920x927",59.35,"firefox","102.0.0","Desktop","Windows 10","Zöllner",1,5,8,"Zollner_str-28.33_diff5.0",-28.3333333333333,"1",5,"arrowright",0,938,689,1
"5bce155e561901000121006f_49472",29,"Female","Master","UK","Caucasian","31/07/2022","08:28:21",39.1869333333333,0.4056,"1920x927",59.35,"firefox","102.0.0","Desktop","Windows 10","Zöllner",1,5,9,"Zollner_str0.0_diff5.0",0,"1",5,"arrowright",0,271,591,1
"5bce155e561901000121006f_49472",29,"Female","Master","UK","Caucasian","31/07/2022","08:28:21",39.1869333333333,0.4056,"1920x927",59.35,"firefox","102.0.0","Desktop","Windows 10","Zöllner",1,5,10,"Zollner_str-28.33_diff-0.2",-28.3333333333333,"-1",0.2,"arrowleft",0,813,6122,1
"5bce155e561901000121006f_49472",29,"Female","Master","UK","Caucasian","31/07/2022","08:28:21",39.1869333333333,0.4056,"1920x927",59.35,"firefox","102.0.0","Desktop","Windows 10","Zöllner",1,5,11,"Zollner_str56.67_diff5.0",56.6666666666667,"1",5,"arrowright",0,636,708,1
"5bce155e561901000121006f_49472",29,"Female","Master","UK","Caucasian","31/07/2022","08:28:21",39.1869333333333,0.4056,"1920x927",59.35,"firefox","102.0.0","Desktop","Windows 10","Zöllner",1,5,12,"Zollner_str85.0_diff1.8",85,"1",1.8,"arrowright",0,580,1157,1
"5bce155e561901000121006f_49472",29,"Female","Master","UK","Caucasian","31/07/2022","08:28:21",39.1869333333333,0.4056,"1920x927",59.35,"firefox","102.0.0","Desktop","Windows 10","Zöllner",1,5,13,"Zollner_str85.0_diff-1.8",85,"-1",1.8,"arrowleft",0,910,1399,1
"5bce155e561901000121006f_49472",29,"Female","Master","UK","Caucasian","31/07/2022","08:28:21",39.1869333333333,0.4056,"1920x927",59.35,"firefox","102.0.0","Desktop","Windows 10","Zöllner",1,5,14,"Zollner_str-56.67_diff-5.0",-56.6666666666667,"-1",5,"arrowleft",0,340,649,1
"5bce155e561901000121006f_49472",29,"Female","Master","UK","Caucasian","31/07/2022","08:28:21",39.1869333333333,0.4056,"1920x927",59.35,"firefox","102.0.0","Desktop","Windows 10","Zöllner",1,5,15,"Zollner_str-28.33_diff-5.0",-28.3333333333333,"-1",5,"arrowleft",0,534,609,1
"5bce155e561901000121006f_49472",29,"Female","Master","UK","Caucasian","31/07/2022","08:28:21",39.1869333333333,0.4056,"1920x927",59.35,"firefox","102.0.0","Desktop","Windows 10","Zöllner",1,5,16,"Zollner_str0.0_diff0.2",0,"1",0.2,"arrowright",0,527,5605,1
"5bce155e561901000121006f_49472",29,"Female","Master","UK","Caucasian","31/07/2022","08:28:21",39.1869333333333,0.4056,"1920x927",59.35,"firefox","102.0.0","Desktop","Windows 10","Zöllner",1,5,17,"Zollner_str28.33_diff-5.0",28.3333333333333,"-1",5,"arrowleft",0,531,1439,1
"5bce155e561901000121006f_49472",29,"Female","Master","UK","Caucasian","31/07/2022","08:28:21",39.1869333333333,0.4056,"1920x927",59.35,"firefox","102.0.0","Desktop","Windows 10","Zöllner",1,5,18,"Zollner_str28.33_diff-1.8",28.3333333333333,"-1",1.8,"arrowleft",0,309,1960,1
"5bce155e561901000121006f_49472",29,"Female","Master","UK","Caucasian","31/07/2022","08:28:21",39.1869333333333,0.4056,"1920x927",59.35,"firefox","102.0.0","Desktop","Windows 10","Zöllner",1,5,19,"Zollner_str56.67_diff-3.4",56.6666666666667,"-1",3.4,"arrowleft",0,884,647,1
"5bce155e561901000121006f_49472",29,"Female","Master","UK","Caucasian","31/07/2022","08:28:21",39.1869333333333,0.4056,"1920x927",59.35,"firefox","102.0.0","Desktop","Windows 10","Zöllner",1,5,20,"Zollner_str0.0_diff3.4",0,"1",3.4,"arrowright",0,446,1381,1
"5bce155e561901000121006f_49472",29,"Female","Master","UK","Caucasian","31/07/2022","08:28:21",39.1869333333333,0.4056,"1920x927",59.35,"firefox","102.0.0","Desktop","Windows 10","Zöllner",1,5,21,"Zollner_str-85.0_diff3.4",-85,"1",3.4,"arrowright",0,264,3140,1
"5bce155e561901000121006f_49472",29,"Female","Master","UK","Caucasian","31/07/2022","08:28:21",39.1869333333333,0.4056,"1920x927",59.35,"firefox","102.0.0","Desktop","Windows 10","Zöllner",1,5,22,"Zollner_str-28.33_diff0.2",-28.3333333333333,"1",0.2,"arrowleft",1,709,7495,1
"5bce155e561901000121006f_49472",29,"Female","Master","UK","Caucasian","31/07/2022","08:28:21",39.1869333333333,0.4056,"1920x927",59.35,"firefox","102.0.0","Desktop","Windows 10","Zöllner",1,5,23,"Zollner_str85.0_diff-5.0",85,"-1",5,"arrowleft",0,596,1104,1
"5bce155e561901000121006f_49472",29,"Female","Master","UK","Caucasian","31/07/2022","08:28:21",39.1869333333333,0.4056,"1920x927",59.35,"firefox","102.0.0","Desktop","Windows 10","Zöllner",1,5,24,"Zollner_str56.67_diff0.2",56.6666666666667,"1",0.2,"arrowleft",1,263,1846,1
"5bce155e561901000121006f_49472",29,"Female","Master","UK","Caucasian","31/07/2022","08:28:21",39.1869333333333,0.4056,"1920x927",59.35,"firefox","102.0.0","Desktop","Windows 10","Zöllner",1,5,25,"Zollner_str85.0_diff5.0",85,"1",5,"arrowright",0,561,792,1
"5bce155e561901000121006f_49472",29,"Female","Master","UK","Caucasian","31/07/2022","08:28:21",39.1869333333333,0.4056,"1920x927",59.35,"firefox","102.0.0","Desktop","Windows 10","Zöllner",1,5,26,"Zollner_str0.0_diff-5.0",0,"-1",5,"arrowleft",0,269,874,1
"5bce155e561901000121006f_49472",29,"Female","Master","UK","Caucasian","31/07/2022","08:28:21",39.1869333333333,0.4056,"1920x927",59.35,"firefox","102.0.0","Desktop","Windows 10","Zöllner",1,5,27,"Zollner_str0.0_diff1.8",0,"1",1.8,"arrowright",0,584,735,1
"5bce155e561901000121006f_49472",29,"Female","Master","UK","Caucasian","31/07/2022","08:28:21",39.1869333333333,0.4056,"1920x927",59.35,"firefox","102.0.0","Desktop","Windows 10","Zöllner",1,5,28,"Zollner_str-85.0_diff-5.0",-85,"-1",5,"arrowleft",0,503,1510,1
"5bce155e561901000121006f_49472",29,"Female","Master","UK","Caucasian","31/07/2022","08:28:21",39.1869333333333,0.4056,"1920x927",59.35,"firefox","102.0.0","Desktop","Windows 10","Zöllner",1,5,29,"Zollner_str-28.33_diff3.4",-28.3333333333333,"1",3.4,"arrowright",0,469,1053,1
"5bce155e561901000121006f_49472",29,"Female","Master","UK","Caucasian","31/07/2022","08:28:21",39.1869333333333,0.4056,"1920x927",59.35,"firefox","102.0.0","Desktop","Windows 10","Zöllner",1,5,30,"Zollner_str85.0_diff3.4",85,"1",3.4,"arrowright",0,336,1378,1
"5bce155e561901000121006f_49472",29,"Female","Master","UK","Caucasian","31/07/2022","08:28:21",39.1869333333333,0.4056,"1920x927",59.35,"firefox","102.0.0","Desktop","Windows 10","Zöllner",1,5,31,"Zollner_str-85.0_diff-1.8",-85,"-1",1.8,"arrowleft",0,800,909,1
"5bce155e561901000121006f_49472",29,"Female","Master","UK","Caucasian","31/07/2022","08:28:21",39.1869333333333,0.4056,"1920x927",59.35,"firefox","102.0.0","Desktop","Windows 10","Zöllner",1,5,32,"Zollner_str0.0_diff-0.2",0,"-1",0.2,"arrowleft",0,538,7065,1
"5bce155e561901000121006f_49472",29,"Female","Master","UK","Caucasian","31/07/2022","08:28:21",39.1869333333333,0.4056,"1920x927",59.35,"firefox","102.0.0","Desktop","Windows 10","Zöllner",1,5,33,"Zollner_str-56.67_diff-0.2",-56.6666666666667,"-1",0.2,"arrowleft",0,257,4784,1
"5bce155e561901000121006f_49472",29,"Female","Master","UK","Caucasian","31/07/2022","08:28:21",39.1869333333333,0.4056,"1920x927",59.35,"firefox","102.0.0","Desktop","Windows 10","Zöllner",1,5,34,"Zollner_str56.67_diff-1.8",56.6666666666667,"-1",1.8,"arrowleft",0,489,2443,1
"5bce155e561901000121006f_49472",29,"Female","Master","UK","Caucasian","31/07/2022","08:28:21",39.1869333333333,0.4056,"1920x927",59.35,"firefox","102.0.0","Desktop","Windows 10","Zöllner",1,5,35,"Zollner_str-56.67_diff-1.8",-56.6666666666667,"-1",1.8,"arrowleft",0,540,872,1
"5bce155e561901000121006f_49472",29,"Female","Master","UK","Caucasian","31/07/2022","08:28:21",39.1869333333333,0.4056,"1920x927",59.35,"firefox","102.0.0","Desktop","Windows 10","Zöllner",1,5,36,"Zollner_str-85.0_diff-0.2",-85,"-1",0.2,"arrowright",1,790,4718,1
"5bce155e561901000121006f_49472",29,"Female","Master","UK","Caucasian","31/07/2022","08:28:21",39.1869333333333,0.4056,"1920x927",59.35,"firefox","102.0.0","Desktop","Windows 10","Zöllner",1,5,37,"Zollner_str-85.0_diff1.8",-85,"1",1.8,"arrowright",0,426,861,1
"5bce155e561901000121006f_49472",29,"Female","Master","UK","Caucasian","31/07/2022","08:28:21",39.1869333333333,0.4056,"1920x927",59.35,"firefox","102.0.0","Desktop","Windows 10","Zöllner",1,5,38,"Zollner_str-28.33_diff-3.4",-28.3333333333333,"-1",3.4,"arrowleft",0,416,1077,1
"5bce155e561901000121006f_49472",29,"Female","Master","UK","Caucasian","31/07/2022","08:28:21",39.1869333333333,0.4056,"1920x927",59.35,"firefox","102.0.0","Desktop","Windows 10","Zöllner",1,5,39,"Zollner_str85.0_diff-0.2",85,"-1",0.2,"arrowright",1,823,2458,1
"5bce155e561901000121006f_49472",29,"Female","Master","UK","Caucasian","31/07/2022","08:28:21",39.1869333333333,0.4056,"1920x927",59.35,"firefox","102.0.0","Desktop","Windows 10","Zöllner",1,5,40,"Zollner_str0.0_diff-3.4",0,"-1",3.4,"arrowleft",0,363,873,1
"5bce155e561901000121006f_49472",29,"Female","Master","UK","Caucasian","31/07/2022","08:28:21",39.1869333333333,0.4056,"1920x927",59.35,"firefox","102.0.0","Desktop","Windows 10","Zöllner",1,5,41,"Zollner_str56.67_diff-5.0",56.6666666666667,"-1",5,"arrowleft",0,484,562,1
"5bce155e561901000121006f_49472",29,"Female","Master","UK","Caucasian","31/07/2022","08:28:21",39.1869333333333,0.4056,"1920x927",59.35,"firefox","102.0.0","Desktop","Windows 10","Zöllner",1,5,42,"Zollner_str28.33_diff1.8",28.3333333333333,"1",1.8,"arrowright",0,604,648,1
"5bce155e561901000121006f_49472",29,"Female","Master","UK","Caucasian","31/07/2022","08:28:21",39.1869333333333,0.4056,"1920x927",59.35,"firefox","102.0.0","Desktop","Windows 10","Zöllner",1,5,43,"Zollner_str28.33_diff-3.4",28.3333333333333,"-1",3.4,"arrowleft",0,869,698,1
"5bce155e561901000121006f_49472",29,"Female","Master","UK","Caucasian","31/07/2022","08:28:21",39.1869333333333,0.4056,"1920x927",59.35,"firefox","102.0.0","Desktop","Windows 10","Zöllner",1,5,44,"Zollner_str56.67_diff1.8",56.6666666666667,"1",1.8,"arrowright",0,867,626,1
"5bce155e561901000121006f_49472",29,"Female","Master","UK","Caucasian","31/07/2022","08:28:21",39.1869333333333,0.4056,"1920x927",59.35,"firefox","102.0.0","Desktop","Windows 10","Zöllner",1,5,45,"Zollner_str-28.33_diff-1.8",-28.3333333333333,"-1",1.8,"arrowleft",0,614,784,1
"5bce155e561901000121006f_49472",29,"Female","Master","UK","Caucasian","31/07/2022","08:28:21",39.1869333333333,0.4056,"1920x927",59.35,"firefox","102.0.0","Desktop","Windows 10","Zöllner",1,5,46,"Zollner_str56.67_diff-0.2",56.6666666666667,"-1",0.2,"arrowright",1,275,2175,1
"5bce155e561901000121006f_49472",29,"Female","Master","UK","Caucasian","31/07/2022","08:28:21",39.1869333333333,0.4056,"1920x927",59.35,"firefox","102.0.0","Desktop","Windows 10","Zöllner",1,5,47,"Zollner_str56.67_diff3.4",56.6666666666667,"1",3.4,"arrowright",0,653,769,1
"5bce155e561901000121006f_49472",29,"Female","Master","UK","Caucasian","31/07/2022","08:28:21",39.1869333333333,0.4056,"1920x927",59.35,"firefox","102.0.0","Desktop","Windows 10","Zöllner",1,5,48,"Zollner_str0.0_diff-1.8",0,"-1",1.8,"arrowleft",0,598,894,1
"5bce155e561901000121006f_49472",29,"Female","Master","UK","Caucasian","31/07/2022","08:28:21",39.1869333333333,0.4056,"1920x927",59.35,"firefox","102.0.0","Desktop","Windows 10","Zöllner",1,5,49,"Zollner_str-56.67_diff1.8",-56.6666666666667,"1",1.8,"arrowright",0,780,1110,1
"5bce155e561901000121006f_49472",29,"Female","Master","UK","Caucasian","31/07/2022","08:28:21",39.1869333333333,0.4056,"1920x927",59.35,"firefox","102.0.0","Desktop","Windows 10","Zöllner",1,5,50,"Zollner_str-85.0_diff-3.4",-85,"-1",3.4,"arrowleft",0,672,1313,1
"5bce155e561901000121006f_49472",29,"Female","Master","UK","Caucasian","31/07/2022","08:28:21",39.1869333333333,0.4056,"1920x927",59.35,"firefox","102.0.0","Desktop","Windows 10","Zöllner",1,5,51,"Zollner_str-28.33_diff1.8",-28.3333333333333,"1",1.8,"arrowright",0,815,641,1
"5bce155e561901000121006f_49472",29,"Female","Master","UK","Caucasian","31/07/2022","08:28:21",39.1869333333333,0.4056,"1920x927",59.35,"firefox","102.0.0","Desktop","Windows 10","Zöllner",1,5,52,"Zollner_str28.33_diff3.4",28.3333333333333,"1",3.4,"arrowright",0,467,648,1
"5bce155e561901000121006f_49472",29,"Female","Master","UK","Caucasian","31/07/2022","08:28:21",39.1869333333333,0.4056,"1920x927",59.35,"firefox","102.0.0","Desktop","Windows 10","Zöllner",1,5,53,"Zollner_str-56.67_diff5.0",-56.6666666666667,"1",5,"arrowright",0,678,542,1
"5bce155e561901000121006f_49472",29,"Female","Master","UK","Caucasian","31/07/2022","08:28:21",39.1869333333333,0.4056,"1920x927",59.35,"firefox","102.0.0","Desktop","Windows 10","Zöllner",1,5,54,"Zollner_str-56.67_diff3.4",-56.6666666666667,"1",3.4,"arrowright",0,536,497,1
"5bce155e561901000121006f_49472",29,"Female","Master","UK","Caucasian","31/07/2022","08:28:21",39.1869333333333,0.4056,"1920x927",59.35,"firefox","102.0.0","Desktop","Windows 10","Zöllner",1,5,55,"Zollner_str28.33_diff-0.2",28.3333333333333,"-1",0.2,"arrowleft",0,661,3000,1
"5bce155e561901000121006f_49472",29,"Female","Master","UK","Caucasian","31/07/2022","08:28:21",39.1869333333333,0.4056,"1920x927",59.35,"firefox","102.0.0","Desktop","Windows 10","Zöllner",1,5,56,"Zollner_str28.33_diff5.0",28.3333333333333,"1",5,"arrowright",0,738,570,1
"5bce155e561901000121006f_49472",29,"Female","Master","UK","Caucasian","31/07/2022","08:28:21",39.1869333333333,0.4056,"1920x927",59.35,"firefox","102.0.0","Desktop","Windows 10","Delboeuf",1,6,1,"Delboeuf_str0.0_diff0.32",0,"1",0.32,"arrowleft",0,542,1011,1
"5bce155e561901000121006f_49472",29,"Female","Master","UK","Caucasian","31/07/2022","08:28:21",39.1869333333333,0.4056,"1920x927",59.35,"firefox","102.0.0","Desktop","Windows 10","Delboeuf",1,6,2,"Delboeuf_str-2.1_diff-0.08",-2.1,"-1",0.08,"arrowright",0,815,856,1
"5bce155e561901000121006f_49472",29,"Female","Master","UK","Caucasian","31/07/2022","08:28:21",39.1869333333333,0.4056,"1920x927",59.35,"firefox","102.0.0","Desktop","Windows 10","Delboeuf",1,6,3,"Delboeuf_str2.1_diff-0.32",2.1,"-1",0.32,"arrowright",0,866,7272,1
"5bce155e561901000121006f_49472",29,"Female","Master","UK","Caucasian","31/07/2022","08:28:21",39.1869333333333,0.4056,"1920x927",59.35,"firefox","102.0.0","Desktop","Windows 10","Delboeuf",1,6,4,"Delboeuf_str-1.4_diff-0.56",-1.4,"-1",0.56,"arrowright",0,794,1191,1
"5bce155e561901000121006f_49472",29,"Female","Master","UK","Caucasian","31/07/2022","08:28:21",39.1869333333333,0.4056,"1920x927",59.35,"firefox","102.0.0","Desktop","Windows 10","Delboeuf",1,6,5,"Delboeuf_str1.4_diff-0.56",1.4,"-1",0.56,"arrowright",0,439,2263,1
"5bce155e561901000121006f_49472",29,"Female","Master","UK","Caucasian","31/07/2022","08:28:21",39.1869333333333,0.4056,"1920x927",59.35,"firefox","102.0.0","Desktop","Windows 10","Delboeuf",1,6,6,"Delboeuf_str1.4_diff0.08",1.4,"1",0.08,"arrowright",1,525,1384,1
"5bce155e561901000121006f_49472",29,"Female","Master","UK","Caucasian","31/07/2022","08:28:21",39.1869333333333,0.4056,"1920x927",59.35,"firefox","102.0.0","Desktop","Windows 10","Delboeuf",1,6,7,"Delboeuf_str1.4_diff0.32",1.4,"1",0.32,"arrowleft",0,463,2030,1
"5bce155e561901000121006f_49472",29,"Female","Master","UK","Caucasian","31/07/2022","08:28:21",39.1869333333333,0.4056,"1920x927",59.35,"firefox","102.0.0","Desktop","Windows 10","Delboeuf",1,6,8,"Delboeuf_str-1.4_diff-0.08",-1.4,"-1",0.08,"arrowright",0,960,819,1
"5bce155e561901000121006f_49472",29,"Female","Master","UK","Caucasian","31/07/2022","08:28:21",39.1869333333333,0.4056,"1920x927",59.35,"firefox","102.0.0","Desktop","Windows 10","Delboeuf",1,6,9,"Delboeuf_str0.7_diff0.32",0.7,"1",0.32,"arrowleft",0,548,1123,1
"5bce155e561901000121006f_49472",29,"Female","Master","UK","Caucasian","31/07/2022","08:28:21",39.1869333333333,0.4056,"1920x927",59.35,"firefox","102.0.0","Desktop","Windows 10","Delboeuf",1,6,10,"Delboeuf_str1.4_diff-0.32",1.4,"-1",0.32,"arrowright",0,527,1537,1
"5bce155e561901000121006f_49472",29,"Female","Master","UK","Caucasian","31/07/2022","08:28:21",39.1869333333333,0.4056,"1920x927",59.35,"firefox","102.0.0","Desktop","Windows 10","Delboeuf",1,6,11,"Delboeuf_str-2.1_diff-0.8",-2.1,"-1",0.8,"arrowright",0,757,1019,1
"5bce155e561901000121006f_49472",29,"Female","Master","UK","Caucasian","31/07/2022","08:28:21",39.1869333333333,0.4056,"1920x927",59.35,"firefox","102.0.0","Desktop","Windows 10","Delboeuf",1,6,12,"Delboeuf_str0.0_diff0.08",0,"1",0.08,"arrowleft",0,783,2083,1
"5bce155e561901000121006f_49472",29,"Female","Master","UK","Caucasian","31/07/2022","08:28:21",39.1869333333333,0.4056,"1920x927",59.35,"firefox","102.0.0","Desktop","Windows 10","Delboeuf",1,6,13,"Delboeuf_str0.7_diff0.56",0.7,"1",0.56,"arrowleft",0,793,1918,1
"5bce155e561901000121006f_49472",29,"Female","Master","UK","Caucasian","31/07/2022","08:28:21",39.1869333333333,0.4056,"1920x927",59.35,"firefox","102.0.0","Desktop","Windows 10","Delboeuf",1,6,14,"Delboeuf_str-1.4_diff0.08",-1.4,"1",0.08,"arrowleft",0,670,1160,1
"5bce155e561901000121006f_49472",29,"Female","Master","UK","Caucasian","31/07/2022","08:28:21",39.1869333333333,0.4056,"1920x927",59.35,"firefox","102.0.0","Desktop","Windows 10","Delboeuf",1,6,15,"Delboeuf_str0.0_diff-0.08",0,"-1",0.08,"arrowleft",1,932,1337,1
"5bce155e561901000121006f_49472",29,"Female","Master","UK","Caucasian","31/07/2022","08:28:21",39.1869333333333,0.4056,"1920x927",59.35,"firefox","102.0.0","Desktop","Windows 10","Delboeuf",1,6,16,"Delboeuf_str2.1_diff0.56",2.1,"1",0.56,"arrowleft",0,275,2414,1
"5bce155e561901000121006f_49472",29,"Female","Master","UK","Caucasian","31/07/2022","08:28:21",39.1869333333333,0.4056,"1920x927",59.35,"firefox","102.0.0","Desktop","Windows 10","Delboeuf",1,6,17,"Delboeuf_str-2.1_diff0.8",-2.1,"1",0.8,"arrowleft",0,341,1443,1
"5bce155e561901000121006f_49472",29,"Female","Master","UK","Caucasian","31/07/2022","08:28:21",39.1869333333333,0.4056,"1920x927",59.35,"firefox","102.0.0","Desktop","Windows 10","Delboeuf",1,6,18,"Delboeuf_str2.1_diff-0.08",2.1,"-1",0.08,"arrowright",0,529,1215,1
"5bce155e561901000121006f_49472",29,"Female","Master","UK","Caucasian","31/07/2022","08:28:21",39.1869333333333,0.4056,"1920x927",59.35,"firefox","102.0.0","Desktop","Windows 10","Delboeuf",1,6,19,"Delboeuf_str-1.4_diff0.56",-1.4,"1",0.56,"arrowleft",0,841,994,1
"5bce155e561901000121006f_49472",29,"Female","Master","UK","Caucasian","31/07/2022","08:28:21",39.1869333333333,0.4056,"1920x927",59.35,"firefox","102.0.0","Desktop","Windows 10","Delboeuf",1,6,20,"Delboeuf_str2.1_diff0.8",2.1,"1",0.8,"arrowleft",0,859,1200,1
"5bce155e561901000121006f_49472",29,"Female","Master","UK","Caucasian","31/07/2022","08:28:21",39.1869333333333,0.4056,"1920x927",59.35,"firefox","102.0.0","Desktop","Windows 10","Delboeuf",1,6,21,"Delboeuf_str2.1_diff-0.8",2.1,"-1",0.8,"arrowright",0,612,974,1
"5bce155e561901000121006f_49472",29,"Female","Master","UK","Caucasian","31/07/2022","08:28:21",39.1869333333333,0.4056,"1920x927",59.35,"firefox","102.0.0","Desktop","Windows 10","Delboeuf",1,6,22,"Delboeuf_str2.1_diff0.32",2.1,"1",0.32,"arrowleft",0,578,1406,1
"5bce155e561901000121006f_49472",29,"Female","Master","UK","Caucasian","31/07/2022","08:28:21",39.1869333333333,0.4056,"1920x927",59.35,"firefox","102.0.0","Desktop","Windows 10","Delboeuf",1,6,23,"Delboeuf_str0.0_diff-0.8",0,"-1",0.8,"arrowright",0,558,816,1
"5bce155e561901000121006f_49472",29,"Female","Master","UK","Caucasian","31/07/2022","08:28:21",39.1869333333333,0.4056,"1920x927",59.35,"firefox","102.0.0","Desktop","Windows 10","Delboeuf",1,6,24,"Delboeuf_str-0.7_diff0.8",-0.7,"1",0.8,"arrowleft",0,423,908,1
"5bce155e561901000121006f_49472",29,"Female","Master","UK","Caucasian","31/07/2022","08:28:21",39.1869333333333,0.4056,"1920x927",59.35,"firefox","102.0.0","Desktop","Windows 10","Delboeuf",1,6,25,"Delboeuf_str-0.7_diff-0.56",-0.7,"-1",0.56,"arrowright",0,648,643,1
"5bce155e561901000121006f_49472",29,"Female","Master","UK","Caucasian","31/07/2022","08:28:21",39.1869333333333,0.4056,"1920x927",59.35,"firefox","102.0.0","Desktop","Windows 10","Delboeuf",1,6,26,"Delboeuf_str-0.7_diff0.32",-0.7,"1",0.32,"arrowleft",0,971,1602,1
"5bce155e561901000121006f_49472",29,"Female","Master","UK","Caucasian","31/07/2022","08:28:21",39.1869333333333,0.4056,"1920x927",59.35,"firefox","102.0.0","Desktop","Windows 10","Delboeuf",1,6,27,"Delboeuf_str-1.4_diff0.8",-1.4,"1",0.8,"arrowleft",0,484,657,1
"5bce155e561901000121006f_49472",29,"Female","Master","UK","Caucasian","31/07/2022","08:28:21",39.1869333333333,0.4056,"1920x927",59.35,"firefox","102.0.0","Desktop","Windows 10","Delboeuf",1,6,28,"Delboeuf_str-2.1_diff-0.56",-2.1,"-1",0.56,"arrowright",0,409,742,1
"5bce155e561901000121006f_49472",29,"Female","Master","UK","Caucasian","31/07/2022","08:28:21",39.1869333333333,0.4056,"1920x927",59.35,"firefox","102.0.0","Desktop","Windows 10","Delboeuf",1,6,29,"Delboeuf_str0.7_diff-0.08",0.7,"-1",0.08,"arrowleft",1,441,1873,1
"5bce155e561901000121006f_49472",29,"Female","Master","UK","Caucasian","31/07/2022","08:28:21",39.1869333333333,0.4056,"1920x927",59.35,"firefox","102.0.0","Desktop","Windows 10","Delboeuf",1,6,30,"Delboeuf_str0.7_diff0.08",0.7,"1",0.08,"arrowright",1,691,2768,1
"5bce155e561901000121006f_49472",29,"Female","Master","UK","Caucasian","31/07/2022","08:28:21",39.1869333333333,0.4056,"1920x927",59.35,"firefox","102.0.0","Desktop","Windows 10","Delboeuf",1,6,31,"Delboeuf_str0.7_diff-0.56",0.7,"-1",0.56,"arrowright",0,402,923,1
"5bce155e561901000121006f_49472",29,"Female","Master","UK","Caucasian","31/07/2022","08:28:21",39.1869333333333,0.4056,"1920x927",59.35,"firefox","102.0.0","Desktop","Windows 10","Delboeuf",1,6,32,"Delboeuf_str-0.7_diff-0.8",-0.7,"-1",0.8,"arrowright",0,538,649,1
"5bce155e561901000121006f_49472",29,"Female","Master","UK","Caucasian","31/07/2022","08:28:21",39.1869333333333,0.4056,"1920x927",59.35,"firefox","102.0.0","Desktop","Windows 10","Delboeuf",1,6,33,"Delboeuf_str-2.1_diff0.56",-2.1,"1",0.56,"arrowleft",0,864,709,1
"5bce155e561901000121006f_49472",29,"Female","Master","UK","Caucasian","31/07/2022","08:28:21",39.1869333333333,0.4056,"1920x927",59.35,"firefox","102.0.0","Desktop","Windows 10","Delboeuf",1,6,34,"Delboeuf_str1.4_diff0.8",1.4,"1",0.8,"arrowleft",0,971,906,1
"5bce155e561901000121006f_49472",29,"Female","Master","UK","Caucasian","31/07/2022","08:28:21",39.1869333333333,0.4056,"1920x927",59.35,"firefox","102.0.0","Desktop","Windows 10","Delboeuf",1,6,35,"Delboeuf_str-0.7_diff-0.08",-0.7,"-1",0.08,"arrowright",0,793,1442,1
"5bce155e561901000121006f_49472",29,"Female","Master","UK","Caucasian","31/07/2022","08:28:21",39.1869333333333,0.4056,"1920x927",59.35,"firefox","102.0.0","Desktop","Windows 10","Delboeuf",1,6,36,"Delboeuf_str1.4_diff-0.08",1.4,"-1",0.08,"arrowleft",1,371,2615,1
"5bce155e561901000121006f_49472",29,"Female","Master","UK","Caucasian","31/07/2022","08:28:21",39.1869333333333,0.4056,"1920x927",59.35,"firefox","102.0.0","Desktop","Windows 10","Delboeuf",1,6,37,"Delboeuf_str-2.1_diff-0.32",-2.1,"-1",0.32,"arrowright",0,572,710,1
"5bce155e561901000121006f_49472",29,"Female","Master","UK","Caucasian","31/07/2022","08:28:21",39.1869333333333,0.4056,"1920x927",59.35,"firefox","102.0.0","Desktop","Windows 10","Delboeuf",1,6,38,"Delboeuf_str2.1_diff0.08",2.1,"1",0.08,"arrowright",1,668,870,1
"5bce155e561901000121006f_49472",29,"Female","Master","UK","Caucasian","31/07/2022","08:28:21",39.1869333333333,0.4056,"1920x927",59.35,"firefox","102.0.0","Desktop","Windows 10","Delboeuf",1,6,39,"Delboeuf_str-2.1_diff0.32",-2.1,"1",0.32,"arrowleft",0,517,1016,1
"5bce155e561901000121006f_49472",29,"Female","Master","UK","Caucasian","31/07/2022","08:28:21",39.1869333333333,0.4056,"1920x927",59.35,"firefox","102.0.0","Desktop","Windows 10","Delboeuf",1,6,40,"Delboeuf_str0.0_diff-0.56",0,"-1",0.56,"arrowright",0,739,1345,1
"5bce155e561901000121006f_49472",29,"Female","Master","UK","Caucasian","31/07/2022","08:28:21",39.1869333333333,0.4056,"1920x927",59.35,"firefox","102.0.0","Desktop","Windows 10","Delboeuf",1,6,41,"Delboeuf_str0.7_diff-0.8",0.7,"-1",0.8,"arrowright",0,635,621,1
"5bce155e561901000121006f_49472",29,"Female","Master","UK","Caucasian","31/07/2022","08:28:21",39.1869333333333,0.4056,"1920x927",59.35,"firefox","102.0.0","Desktop","Windows 10","Delboeuf",1,6,42,"Delboeuf_str-0.7_diff0.56",-0.7,"1",0.56,"arrowleft",0,643,837,1
"5bce155e561901000121006f_49472",29,"Female","Master","UK","Caucasian","31/07/2022","08:28:21",39.1869333333333,0.4056,"1920x927",59.35,"firefox","102.0.0","Desktop","Windows 10","Delboeuf",1,6,43,"Delboeuf_str1.4_diff0.56",1.4,"1",0.56,"arrowleft",0,688,1219,1
"5bce155e561901000121006f_49472",29,"Female","Master","UK","Caucasian","31/07/2022","08:28:21",39.1869333333333,0.4056,"1920x927",59.35,"firefox","102.0.0","Desktop","Windows 10","Delboeuf",1,6,44,"Delboeuf_str-1.4_diff-0.32",-1.4,"-1",0.32,"arrowright",0,958,665,1
"5bce155e561901000121006f_49472",29,"Female","Master","UK","Caucasian","31/07/2022","08:28:21",39.1869333333333,0.4056,"1920x927",59.35,"firefox","102.0.0","Desktop","Windows 10","Delboeuf",1,6,45,"Delboeuf_str-0.7_diff-0.32",-0.7,"-1",0.32,"arrowright",0,286,1347,1
"5bce155e561901000121006f_49472",29,"Female","Master","UK","Caucasian","31/07/2022","08:28:21",39.1869333333333,0.4056,"1920x927",59.35,"firefox","102.0.0","Desktop","Windows 10","Delboeuf",1,6,46,"Delboeuf_str-1.4_diff0.32",-1.4,"1",0.32,"arrowleft",0,332,1274,1
"5bce155e561901000121006f_49472",29,"Female","Master","UK","Caucasian","31/07/2022","08:28:21",39.1869333333333,0.4056,"1920x927",59.35,"firefox","102.0.0","Desktop","Windows 10","Delboeuf",1,6,47,"Delboeuf_str-0.7_diff0.08",-0.7,"1",0.08,"arrowleft",0,715,1445,1
"5bce155e561901000121006f_49472",29,"Female","Master","UK","Caucasian","31/07/2022","08:28:21",39.1869333333333,0.4056,"1920x927",59.35,"firefox","102.0.0","Desktop","Windows 10","Delboeuf",1,6,48,"Delboeuf_str-1.4_diff-0.8",-1.4,"-1",0.8,"arrowright",0,602,650,1
"5bce155e561901000121006f_49472",29,"Female","Master","UK","Caucasian","31/07/2022","08:28:21",39.1869333333333,0.4056,"1920x927",59.35,"firefox","102.0.0","Desktop","Windows 10","Delboeuf",1,6,49,"Delboeuf_str0.7_diff0.8",0.7,"1",0.8,"arrowleft",0,490,709,1
"5bce155e561901000121006f_49472",29,"Female","Master","UK","Caucasian","31/07/2022","08:28:21",39.1869333333333,0.4056,"1920x927",59.35,"firefox","102.0.0","Desktop","Windows 10","Delboeuf",1,6,50,"Delboeuf_str0.0_diff0.8",0,"1",0.8,"arrowleft",0,489,596,1
"5bce155e561901000121006f_49472",29,"Female","Master","UK","Caucasian","31/07/2022","08:28:21",39.1869333333333,0.4056,"1920x927",59.35,"firefox","102.0.0","Desktop","Windows 10","Delboeuf",1,6,51,"Delboeuf_str0.7_diff-0.32",0.7,"-1",0.32,"arrowright",0,709,1819,1
"5bce155e561901000121006f_49472",29,"Female","Master","UK","Caucasian","31/07/2022","08:28:21",39.1869333333333,0.4056,"1920x927",59.35,"firefox","102.0.0","Desktop","Windows 10","Delboeuf",1,6,52,"Delboeuf_str1.4_diff-0.8",1.4,"-1",0.8,"arrowright",0,675,921,1
"5bce155e561901000121006f_49472",29,"Female","Master","UK","Caucasian","31/07/2022","08:28:21",39.1869333333333,0.4056,"1920x927",59.35,"firefox","102.0.0","Desktop","Windows 10","Delboeuf",1,6,53,"Delboeuf_str-2.1_diff0.08",-2.1,"1",0.08,"arrowleft",0,322,1212,1
"5bce155e561901000121006f_49472",29,"Female","Master","UK","Caucasian","31/07/2022","08:28:21",39.1869333333333,0.4056,"1920x927",59.35,"firefox","102.0.0","Desktop","Windows 10","Delboeuf",1,6,54,"Delboeuf_str0.0_diff0.56",0,"1",0.56,"arrowleft",0,300,694,1
"5bce155e561901000121006f_49472",29,"Female","Master","UK","Caucasian","31/07/2022","08:28:21",39.1869333333333,0.4056,"1920x927",59.35,"firefox","102.0.0","Desktop","Windows 10","Delboeuf",1,6,55,"Delboeuf_str2.1_diff-0.56",2.1,"-1",0.56,"arrowright",0,689,1252,1
"5bce155e561901000121006f_49472",29,"Female","Master","UK","Caucasian","31/07/2022","08:28:21",39.1869333333333,0.4056,"1920x927",59.35,"firefox","102.0.0","Desktop","Windows 10","Delboeuf",1,6,56,"Delboeuf_str0.0_diff-0.32",0,"-1",0.32,"arrowright",0,454,1751,1
"5bce155e561901000121006f_49472",29,"Female","Master","UK","Caucasian","31/07/2022","08:28:21",39.1869333333333,0.4056,"1920x927",59.35,"firefox","102.0.0","Desktop","Windows 10","Ponzo",1,7,1,"Ponzo_str0.0_diff-0.4",0,"-1",0.4,"arrowdown",0,552,721,1
"5bce155e561901000121006f_49472",29,"Female","Master","UK","Caucasian","31/07/2022","08:28:21",39.1869333333333,0.4056,"1920x927",59.35,"firefox","102.0.0","Desktop","Windows 10","Ponzo",1,7,2,"Ponzo_str8.33_diff-0.16",8.33333333333334,"-1",0.16,"arrowdown",0,411,1683,1
"5bce155e561901000121006f_49472",29,"Female","Master","UK","Caucasian","31/07/2022","08:28:21",39.1869333333333,0.4056,"1920x927",59.35,"firefox","102.0.0","Desktop","Windows 10","Ponzo",1,7,3,"Ponzo_str25.0_diff0.28",25,"1",0.28,"arrowup",0,621,4195,1
"5bce155e561901000121006f_49472",29,"Female","Master","UK","Caucasian","31/07/2022","08:28:21",39.1869333333333,0.4056,"1920x927",59.35,"firefox","102.0.0","Desktop","Windows 10","Ponzo",1,7,4,"Ponzo_str-25.0_diff-0.28",-25,"-1",0.28,"arrowdown",0,627,739,1
"5bce155e561901000121006f_49472",29,"Female","Master","UK","Caucasian","31/07/2022","08:28:21",39.1869333333333,0.4056,"1920x927",59.35,"firefox","102.0.0","Desktop","Windows 10","Ponzo",1,7,5,"Ponzo_str-8.33_diff0.4",-8.33333333333333,"1",0.4,"arrowup",0,574,870,1
"5bce155e561901000121006f_49472",29,"Female","Master","UK","Caucasian","31/07/2022","08:28:21",39.1869333333333,0.4056,"1920x927",59.35,"firefox","102.0.0","Desktop","Windows 10","Ponzo",1,7,6,"Ponzo_str-16.67_diff-0.28",-16.6666666666667,"-1",0.28,"arrowdown",0,388,1248,1
"5bce155e561901000121006f_49472",29,"Female","Master","UK","Caucasian","31/07/2022","08:28:21",39.1869333333333,0.4056,"1920x927",59.35,"firefox","102.0.0","Desktop","Windows 10","Ponzo",1,7,7,"Ponzo_str-16.67_diff-0.4",-16.6666666666667,"-1",0.4,"arrowdown",0,977,651,1
"5bce155e561901000121006f_49472",29,"Female","Master","UK","Caucasian","31/07/2022","08:28:21",39.1869333333333,0.4056,"1920x927",59.35,"firefox","102.0.0","Desktop","Windows 10","Ponzo",1,7,8,"Ponzo_str25.0_diff0.16",25,"1",0.16,"arrowdown",1,785,4614,1
"5bce155e561901000121006f_49472",29,"Female","Master","UK","Caucasian","31/07/2022","08:28:21",39.1869333333333,0.4056,"1920x927",59.35,"firefox","102.0.0","Desktop","Windows 10","Ponzo",1,7,9,"Ponzo_str0.0_diff0.04",0,"1",0.04,"arrowup",0,830,1209,1
"5bce155e561901000121006f_49472",29,"Female","Master","UK","Caucasian","31/07/2022","08:28:21",39.1869333333333,0.4056,"1920x927",59.35,"firefox","102.0.0","Desktop","Windows 10","Ponzo",1,7,10,"Ponzo_str-8.33_diff-0.4",-8.33333333333333,"-1",0.4,"arrowdown",0,385,855,1
"5bce155e561901000121006f_49472",29,"Female","Master","UK","Caucasian","31/07/2022","08:28:21",39.1869333333333,0.4056,"1920x927",59.35,"firefox","102.0.0","Desktop","Windows 10","Ponzo",1,7,11,"Ponzo_str-25.0_diff0.04",-25,"1",0.04,"arrowup",0,704,1294,1
"5bce155e561901000121006f_49472",29,"Female","Master","UK","Caucasian","31/07/2022","08:28:21",39.1869333333333,0.4056,"1920x927",59.35,"firefox","102.0.0","Desktop","Windows 10","Ponzo",1,7,12,"Ponzo_str-25.0_diff-0.4",-25,"-1",0.4,"arrowdown",0,738,843,1
"5bce155e561901000121006f_49472",29,"Female","Master","UK","Caucasian","31/07/2022","08:28:21",39.1869333333333,0.4056,"1920x927",59.35,"firefox","102.0.0","Desktop","Windows 10","Ponzo",1,7,13,"Ponzo_str-16.67_diff-0.16",-16.6666666666667,"-1",0.16,"arrowdown",0,715,1171,1
"5bce155e561901000121006f_49472",29,"Female","Master","UK","Caucasian","31/07/2022","08:28:21",39.1869333333333,0.4056,"1920x927",59.35,"firefox","102.0.0","Desktop","Windows 10","Ponzo",1,7,14,"Ponzo_str-8.33_diff0.04",-8.33333333333333,"1",0.04,"arrowup",0,762,1013,1
"5bce155e561901000121006f_49472",29,"Female","Master","UK","Caucasian","31/07/2022","08:28:21",39.1869333333333,0.4056,"1920x927",59.35,"firefox","102.0.0","Desktop","Windows 10","Ponzo",1,7,15,"Ponzo_str16.67_diff-0.16",16.6666666666667,"-1",0.16,"arrowup",1,300,1805,1
"5bce155e561901000121006f_49472",29,"Female","Master","UK","Caucasian","31/07/2022","08:28:21",39.1869333333333,0.4056,"1920x927",59.35,"firefox","102.0.0","Desktop","Windows 10","Ponzo",1,7,16,"Ponzo_str-16.67_diff0.16",-16.6666666666667,"1",0.16,"arrowup",0,543,858,1
"5bce155e561901000121006f_49472",29,"Female","Master","UK","Caucasian","31/07/2022","08:28:21",39.1869333333333,0.4056,"1920x927",59.35,"firefox","102.0.0","Desktop","Windows 10","Ponzo",1,7,17,"Ponzo_str0.0_diff0.16",0,"1",0.16,"arrowup",0,983,1006,1
"5bce155e561901000121006f_49472",29,"Female","Master","UK","Caucasian","31/07/2022","08:28:21",39.1869333333333,0.4056,"1920x927",59.35,"firefox","102.0.0","Desktop","Windows 10","Ponzo",1,7,18,"Ponzo_str0.0_diff0.4",0,"1",0.4,"arrowup",0,512,719,1
"5bce155e561901000121006f_49472",29,"Female","Master","UK","Caucasian","31/07/2022","08:28:21",39.1869333333333,0.4056,"1920x927",59.35,"firefox","102.0.0","Desktop","Windows 10","Ponzo",1,7,19,"Ponzo_str16.67_diff-0.4",16.6666666666667,"-1",0.4,"arrowdown",0,957,679,1
"5bce155e561901000121006f_49472",29,"Female","Master","UK","Caucasian","31/07/2022","08:28:21",39.1869333333333,0.4056,"1920x927",59.35,"firefox","102.0.0","Desktop","Windows 10","Ponzo",1,7,20,"Ponzo_str-16.67_diff-0.04",-16.6666666666667,"-1",0.04,"arrowup",1,770,1053,1
"5bce155e561901000121006f_49472",29,"Female","Master","UK","Caucasian","31/07/2022","08:28:21",39.1869333333333,0.4056,"1920x927",59.35,"firefox","102.0.0","Desktop","Windows 10","Ponzo",1,7,21,"Ponzo_str25.0_diff-0.04",25,"-1",0.04,"arrowup",1,610,1236,1
"5bce155e561901000121006f_49472",29,"Female","Master","UK","Caucasian","31/07/2022","08:28:21",39.1869333333333,0.4056,"1920x927",59.35,"firefox","102.0.0","Desktop","Windows 10","Ponzo",1,7,22,"Ponzo_str-25.0_diff-0.04",-25,"-1",0.04,"arrowdown",0,708,999,1
"5bce155e561901000121006f_49472",29,"Female","Master","UK","Caucasian","31/07/2022","08:28:21",39.1869333333333,0.4056,"1920x927",59.35,"firefox","102.0.0","Desktop","Windows 10","Ponzo",1,7,23,"Ponzo_str0.0_diff-0.28",0,"-1",0.28,"arrowdown",0,551,1224,1
"5bce155e561901000121006f_49472",29,"Female","Master","UK","Caucasian","31/07/2022","08:28:21",39.1869333333333,0.4056,"1920x927",59.35,"firefox","102.0.0","Desktop","Windows 10","Ponzo",1,7,24,"Ponzo_str16.67_diff-0.04",16.6666666666667,"-1",0.04,"arrowup",1,419,1892,1
"5bce155e561901000121006f_49472",29,"Female","Master","UK","Caucasian","31/07/2022","08:28:21",39.1869333333333,0.4056,"1920x927",59.35,"firefox","102.0.0","Desktop","Windows 10","Ponzo",1,7,25,"Ponzo_str-8.33_diff0.16",-8.33333333333333,"1",0.16,"arrowup",0,728,771,1
"5bce155e561901000121006f_49472",29,"Female","Master","UK","Caucasian","31/07/2022","08:28:21",39.1869333333333,0.4056,"1920x927",59.35,"firefox","102.0.0","Desktop","Windows 10","Ponzo",1,7,26,"Ponzo_str-16.67_diff0.28",-16.6666666666667,"1",0.28,"arrowup",0,689,719,1
"5bce155e561901000121006f_49472",29,"Female","Master","UK","Caucasian","31/07/2022","08:28:21",39.1869333333333,0.4056,"1920x927",59.35,"firefox","102.0.0","Desktop","Windows 10","Ponzo",1,7,27,"Ponzo_str8.33_diff-0.04",8.33333333333334,"-1",0.04,"arrowup",1,292,2422,1
"5bce155e561901000121006f_49472",29,"Female","Master","UK","Caucasian","31/07/2022","08:28:21",39.1869333333333,0.4056,"1920x927",59.35,"firefox","102.0.0","Desktop","Windows 10","Ponzo",1,7,28,"Ponzo_str8.33_diff0.28",8.33333333333334,"1",0.28,"arrowup",0,717,856,1
"5bce155e561901000121006f_49472",29,"Female","Master","UK","Caucasian","31/07/2022","08:28:21",39.1869333333333,0.4056,"1920x927",59.35,"firefox","102.0.0","Desktop","Windows 10","Ponzo",1,7,29,"Ponzo_str-25.0_diff0.28",-25,"1",0.28,"arrowup",0,581,878,1
"5bce155e561901000121006f_49472",29,"Female","Master","UK","Caucasian","31/07/2022","08:28:21",39.1869333333333,0.4056,"1920x927",59.35,"firefox","102.0.0","Desktop","Windows 10","Ponzo",1,7,30,"Ponzo_str25.0_diff-0.4",25,"-1",0.4,"arrowdown",0,613,1445,1
"5bce155e561901000121006f_49472",29,"Female","Master","UK","Caucasian","31/07/2022","08:28:21",39.1869333333333,0.4056,"1920x927",59.35,"firefox","102.0.0","Desktop","Windows 10","Ponzo",1,7,31,"Ponzo_str16.67_diff0.16",16.6666666666667,"1",0.16,"arrowup",0,956,2670,1
"5bce155e561901000121006f_49472",29,"Female","Master","UK","Caucasian","31/07/2022","08:28:21",39.1869333333333,0.4056,"1920x927",59.35,"firefox","102.0.0","Desktop","Windows 10","Ponzo",1,7,32,"Ponzo_str0.0_diff-0.04",0,"-1",0.04,"arrowup",1,330,1940,1
"5bce155e561901000121006f_49472",29,"Female","Master","UK","Caucasian","31/07/2022","08:28:21",39.1869333333333,0.4056,"1920x927",59.35,"firefox","102.0.0","Desktop","Windows 10","Ponzo",1,7,33,"Ponzo_str25.0_diff0.4",25,"1",0.4,"arrowup",0,666,2022,1
"5bce155e561901000121006f_49472",29,"Female","Master","UK","Caucasian","31/07/2022","08:28:21",39.1869333333333,0.4056,"1920x927",59.35,"firefox","102.0.0","Desktop","Windows 10","Ponzo",1,7,34,"Ponzo_str0.0_diff-0.16",0,"-1",0.16,"arrowdown",0,401,967,1
"5bce155e561901000121006f_49472",29,"Female","Master","UK","Caucasian","31/07/2022","08:28:21",39.1869333333333,0.4056,"1920x927",59.35,"firefox","102.0.0","Desktop","Windows 10","Ponzo",1,7,35,"Ponzo_str16.67_diff0.4",16.6666666666667,"1",0.4,"arrowup",0,575,840,1
"5bce155e561901000121006f_49472",29,"Female","Master","UK","Caucasian","31/07/2022","08:28:21",39.1869333333333,0.4056,"1920x927",59.35,"firefox","102.0.0","Desktop","Windows 10","Ponzo",1,7,36,"Ponzo_str16.67_diff0.28",16.6666666666667,"1",0.28,"arrowup",0,462,1104,1
"5bce155e561901000121006f_49472",29,"Female","Master","UK","Caucasian","31/07/2022","08:28:21",39.1869333333333,0.4056,"1920x927",59.35,"firefox","102.0.0","Desktop","Windows 10","Ponzo",1,7,37,"Ponzo_str8.33_diff0.04",8.33333333333334,"1",0.04,"arrowdown",1,960,1404,1
"5bce155e561901000121006f_49472",29,"Female","Master","UK","Caucasian","31/07/2022","08:28:21",39.1869333333333,0.4056,"1920x927",59.35,"firefox","102.0.0","Desktop","Windows 10","Ponzo",1,7,38,"Ponzo_str25.0_diff-0.16",25,"-1",0.16,"arrowdown",0,570,2123,1
"5bce155e561901000121006f_49472",29,"Female","Master","UK","Caucasian","31/07/2022","08:28:21",39.1869333333333,0.4056,"1920x927",59.35,"firefox","102.0.0","Desktop","Windows 10","Ponzo",1,7,39,"Ponzo_str25.0_diff0.04",25,"1",0.04,"arrowdown",1,388,1699,1
