"Participant","Age","Sex","Education","Nationality","Ethnicity","Date","Time","Duration","Break_Duration","Screen_Resolution","Screen_Size","Screen_Refresh","Browser","Browser_Version","Device","Device_OS","Illusion_Type","Block","Block_Order","Trial","Stimulus","Illusion_Strength","Illusion_Side","Illusion_Difference","Answer","Error","ISI","RT","Pyllusion","Illusion_Difference_log","Illusion_Difference_sqrt","Illusion_Difference_cbrt","Illusion_Strength_log","Illusion_Strength_sqrt","Illusion_Strength_cbrt"
"5c8fcb13dd3b360015b4dff6_dvbq9",30,"Male","Master","Portugal","Caucasian","05/08/2022","10:22:53",35.4983,0.168583333333333,"2195x1084",2.37938,61.28,"chrome","103.0.0","Desktop","Windows 10","Müller-Lyer",1,1,61,"MullerLyer_str-14.0_diff-0.1458",-14,"-1",0.14575,"arrowdown",0,763,538,"1.2",0.136059444407096,0.381772183376421,0.5263,-2.70805020110221,-3.74165738677394,-2.41014226417523
"5c8fcb13dd3b360015b4dff6_dvbq9",30,"Male","Master","Portugal","Caucasian","05/08/2022","10:22:53",35.4983,0.168583333333333,"2195x1084",2.37938,61.28,"chrome","103.0.0","Desktop","Windows 10","Müller-Lyer",1,1,62,"MullerLyer_str0.0_diff-0.2735",0,"-1",0.27349,"arrowdown",0,731,411,"1.2",0.241761163031201,0.52296271377604,0.6491,0,0,0
"5c8fcb13dd3b360015b4dff6_dvbq9",30,"Male","Master","Portugal","Caucasian","05/08/2022","10:22:53",35.4983,0.168583333333333,"2195x1084",2.37938,61.28,"chrome","103.0.0","Desktop","Windows 10","Müller-Lyer",1,1,63,"MullerLyer_str28.0_diff0.2735",28,"1",0.27349,"arrowdown",1,637,815,"1.2",0.241761163031201,0.52296271377604,0.6491,3.36729582998647,5.29150262212918,3.03658897187566
"5c8fcb13dd3b360015b4dff6_dvbq9",30,"Male","Master","Portugal","Caucasian","05/08/2022","10:22:53",35.4983,0.168583333333333,"2195x1084",2.37938,61.28,"chrome","103.0.0","Desktop","Windows 10","Müller-Lyer",1,1,64,"MullerLyer_str0.0_diff0.46",0,"1",0.46,"arrowup",0,892,533,"1.2",0.378436435720245,0.678232998312527,0.7719,0,0,0
"5c8fcb13dd3b360015b4dff6_dvbq9",30,"Male","Master","Portugal","Caucasian","05/08/2022","10:22:53",35.4983,0.168583333333333,"2195x1084",2.37938,61.28,"chrome","103.0.0","Desktop","Windows 10","Müller-Lyer",1,1,65,"MullerLyer_str14.0_diff0.46",14,"1",0.46,"arrowup",0,995,440,"1.2",0.378436435720245,0.678232998312527,0.7719,2.70805020110221,3.74165738677394,2.41014226417523
"5c8fcb13dd3b360015b4dff6_dvbq9",30,"Male","Master","Portugal","Caucasian","05/08/2022","10:22:53",35.4983,0.168583333333333,"2195x1084",2.37938,61.28,"chrome","103.0.0","Desktop","Windows 10","Müller-Lyer",1,1,66,"MullerLyer_str0.0_diff0.2735",0,"1",0.27349,"arrowup",0,732,475,"1.2",0.241761163031201,0.52296271377604,0.6491,0,0,0
"5c8fcb13dd3b360015b4dff6_dvbq9",30,"Male","Master","Portugal","Caucasian","05/08/2022","10:22:53",35.4983,0.168583333333333,"2195x1084",2.37938,61.28,"chrome","103.0.0","Desktop","Windows 10","Müller-Lyer",1,1,67,"MullerLyer_str0.0_diff-0.1458",0,"-1",0.14575,"arrowdown",0,590,569,"1.2",0.136059444407096,0.381772183376421,0.5263,0,0,0
"5c8fcb13dd3b360015b4dff6_dvbq9",30,"Male","Master","Portugal","Caucasian","05/08/2022","10:22:53",35.4983,0.168583333333333,"2195x1084",2.37938,61.28,"chrome","103.0.0","Desktop","Windows 10","Müller-Lyer",1,1,68,"MullerLyer_str42.0_diff-0.0656",42,"-1",0.06565,"arrowup",1,787,446,"1.2",0.0635849416251106,0.256222559506379,0.4034,3.76120011569356,6.48074069840786,3.47602664488645
"5c8fcb13dd3b360015b4dff6_dvbq9",30,"Male","Master","Portugal","Caucasian","05/08/2022","10:22:53",35.4983,0.168583333333333,"2195x1084",2.37938,61.28,"chrome","103.0.0","Desktop","Windows 10","Müller-Lyer",1,1,69,"MullerLyer_str-14.0_diff0.1458",-14,"1",0.14575,"arrowup",0,959,414,"1.2",0.136059444407096,0.381772183376421,0.5263,-2.70805020110221,-3.74165738677394,-2.41014226417523
"5c8fcb13dd3b360015b4dff6_dvbq9",30,"Male","Master","Portugal","Caucasian","05/08/2022","10:22:53",35.4983,0.168583333333333,"2195x1084",2.37938,61.28,"chrome","103.0.0","Desktop","Windows 10","Müller-Lyer",1,1,70,"MullerLyer_str-28.0_diff0.1458",-28,"1",0.14575,"arrowup",0,730,426,"1.2",0.136059444407096,0.381772183376421,0.5263,-3.36729582998647,-5.29150262212918,-3.03658897187566
"5c8fcb13dd3b360015b4dff6_dvbq9",30,"Male","Master","Portugal","Caucasian","05/08/2022","10:22:53",35.4983,0.168583333333333,"2195x1084",2.37938,61.28,"chrome","103.0.0","Desktop","Windows 10","Müller-Lyer",1,1,71,"MullerLyer_str-14.0_diff0.46",-14,"1",0.46,"arrowup",0,595,443,"1.2",0.378436435720245,0.678232998312527,0.7719,-2.70805020110221,-3.74165738677394,-2.41014226417523
"5c8fcb13dd3b360015b4dff6_dvbq9",30,"Male","Master","Portugal","Caucasian","05/08/2022","10:22:53",35.4983,0.168583333333333,"2195x1084",2.37938,61.28,"chrome","103.0.0","Desktop","Windows 10","Müller-Lyer",1,1,72,"MullerLyer_str-42.0_diff-0.1458",-42,"-1",0.14575,"arrowdown",0,697,444,"1.2",0.136059444407096,0.381772183376421,0.5263,-3.76120011569356,-6.48074069840786,-3.47602664488645
"5c8fcb13dd3b360015b4dff6_dvbq9",30,"Male","Master","Portugal","Caucasian","05/08/2022","10:22:53",35.4983,0.168583333333333,"2195x1084",2.37938,61.28,"chrome","103.0.0","Desktop","Windows 10","Müller-Lyer",1,1,73,"MullerLyer_str14.0_diff-0.1458",14,"-1",0.14575,"arrowup",1,711,638,"1.2",0.136059444407096,0.381772183376421,0.5263,2.70805020110221,3.74165738677394,2.41014226417523
"5c8fcb13dd3b360015b4dff6_dvbq9",30,"Male","Master","Portugal","Caucasian","05/08/2022","10:22:53",35.4983,0.168583333333333,"2195x1084",2.37938,61.28,"chrome","103.0.0","Desktop","Windows 10","Müller-Lyer",1,1,74,"MullerLyer_str0.0_diff-0.0656",0,"-1",0.06565,"arrowdown",0,857,1034,"1.2",0.0635849416251106,0.256222559506379,0.4034,0,0,0
"5c8fcb13dd3b360015b4dff6_dvbq9",30,"Male","Master","Portugal","Caucasian","05/08/2022","10:22:53",35.4983,0.168583333333333,"2195x1084",2.37938,61.28,"chrome","103.0.0","Desktop","Windows 10","Müller-Lyer",1,1,75,"MullerLyer_str28.0_diff-0.46",28,"-1",0.46,"arrowdown",0,990,810,"1.2",0.378436435720245,0.678232998312527,0.7719,3.36729582998647,5.29150262212918,3.03658897187566
"5c8fcb13dd3b360015b4dff6_dvbq9",30,"Male","Master","Portugal","Caucasian","05/08/2022","10:22:53",35.4983,0.168583333333333,"2195x1084",2.37938,61.28,"chrome","103.0.0","Desktop","Windows 10","Müller-Lyer",1,1,76,"MullerLyer_str-14.0_diff-0.46",-14,"-1",0.46,"arrowdown",0,675,519,"1.2",0.378436435720245,0.678232998312527,0.7719,-2.70805020110221,-3.74165738677394,-2.41014226417523
"5c8fcb13dd3b360015b4dff6_dvbq9",30,"Male","Master","Portugal","Caucasian","05/08/2022","10:22:53",35.4983,0.168583333333333,"2195x1084",2.37938,61.28,"chrome","103.0.0","Desktop","Windows 10","Müller-Lyer",1,1,77,"MullerLyer_str0.0_diff0.0656",0,"1",0.06565,"arrowup",0,899,597,"1.2",0.0635849416251106,0.256222559506379,0.4034,0,0,0
"5c8fcb13dd3b360015b4dff6_dvbq9",30,"Male","Master","Portugal","Caucasian","05/08/2022","10:22:53",35.4983,0.168583333333333,"2195x1084",2.37938,61.28,"chrome","103.0.0","Desktop","Windows 10","Müller-Lyer",1,1,78,"MullerLyer_str-42.0_diff-0.46",-42,"-1",0.46,"arrowdown",0,952,450,"1.2",0.378436435720245,0.678232998312527,0.7719,-3.76120011569356,-6.48074069840786,-3.47602664488645
"5c8fcb13dd3b360015b4dff6_dvbq9",30,"Male","Master","Portugal","Caucasian","05/08/2022","10:22:53",35.4983,0.168583333333333,"2195x1084",2.37938,61.28,"chrome","103.0.0","Desktop","Windows 10","Müller-Lyer",1,1,79,"MullerLyer_str-28.0_diff-0.0656",-28,"-1",0.06565,"arrowdown",0,824,451,"1.2",0.0635849416251106,0.256222559506379,0.4034,-3.36729582998647,-5.29150262212918,-3.03658897187566
"5c8fcb13dd3b360015b4dff6_dvbq9",30,"Male","Master","Portugal","Caucasian","05/08/2022","10:22:53",35.4983,0.168583333333333,"2195x1084",2.37938,61.28,"chrome","103.0.0","Desktop","Windows 10","Müller-Lyer",1,1,80,"MullerLyer_str0.0_diff-0.46",0,"-1",0.46,"arrowdown",0,750,458,"1.2",0.378436435720245,0.678232998312527,0.7719,0,0,0
"5c8fcb13dd3b360015b4dff6_dvbq9",30,"Male","Master","Portugal","Caucasian","05/08/2022","10:22:53",35.4983,0.168583333333333,"2195x1084",2.37938,61.28,"chrome","103.0.0","Desktop","Windows 10","Müller-Lyer",1,1,81,"MullerLyer_str42.0_diff-0.1458",42,"-1",0.14575,"arrowup",1,930,466,"1.2",0.136059444407096,0.381772183376421,0.5263,3.76120011569356,6.48074069840786,3.47602664488645
"5c8fcb13dd3b360015b4dff6_dvbq9",30,"Male","Master","Portugal","Caucasian","05/08/2022","10:22:53",35.4983,0.168583333333333,"2195x1084",2.37938,61.28,"chrome","103.0.0","Desktop","Windows 10","Müller-Lyer",1,1,82,"MullerLyer_str-28.0_diff0.2735",-28,"1",0.27349,"arrowup",0,620,408,"1.2",0.241761163031201,0.52296271377604,0.6491,-3.36729582998647,-5.29150262212918,-3.03658897187566
"5c8fcb13dd3b360015b4dff6_dvbq9",30,"Male","Master","Portugal","Caucasian","05/08/2022","10:22:53",35.4983,0.168583333333333,"2195x1084",2.37938,61.28,"chrome","103.0.0","Desktop","Windows 10","Müller-Lyer",1,1,83,"MullerLyer_str-42.0_diff-0.0656",-42,"-1",0.06565,"arrowdown",0,887,418,"1.2",0.0635849416251106,0.256222559506379,0.4034,-3.76120011569356,-6.48074069840786,-3.47602664488645
"5c8fcb13dd3b360015b4dff6_dvbq9",30,"Male","Master","Portugal","Caucasian","05/08/2022","10:22:53",35.4983,0.168583333333333,"2195x1084",2.37938,61.28,"chrome","103.0.0","Desktop","Windows 10","Müller-Lyer",1,1,84,"MullerLyer_str-42.0_diff0.46",-42,"1",0.46,"arrowup",0,650,412,"1.2",0.378436435720245,0.678232998312527,0.7719,-3.76120011569356,-6.48074069840786,-3.47602664488645
"5c8fcb13dd3b360015b4dff6_dvbq9",30,"Male","Master","Portugal","Caucasian","05/08/2022","10:22:53",35.4983,0.168583333333333,"2195x1084",2.37938,61.28,"chrome","103.0.0","Desktop","Windows 10","Müller-Lyer",1,1,85,"MullerLyer_str28.0_diff-0.1458",28,"-1",0.14575,"arrowup",1,834,586,"1.2",0.136059444407096,0.381772183376421,0.5263,3.36729582998647,5.29150262212918,3.03658897187566
"5c8fcb13dd3b360015b4dff6_dvbq9",30,"Male","Master","Portugal","Caucasian","05/08/2022","10:22:53",35.4983,0.168583333333333,"2195x1084",2.37938,61.28,"chrome","103.0.0","Desktop","Windows 10","Müller-Lyer",1,1,86,"MullerLyer_str-42.0_diff-0.2735",-42,"-1",0.27349,"arrowdown",0,976,409,"1.2",0.241761163031201,0.52296271377604,0.6491,-3.76120011569356,-6.48074069840786,-3.47602664488645
"5c8fcb13dd3b360015b4dff6_dvbq9",30,"Male","Master","Portugal","Caucasian","05/08/2022","10:22:53",35.4983,0.168583333333333,"2195x1084",2.37938,61.28,"chrome","103.0.0","Desktop","Windows 10","Müller-Lyer",1,1,87,"MullerLyer_str-42.0_diff0.0656",-42,"1",0.06565,"arrowup",0,689,450,"1.2",0.0635849416251106,0.256222559506379,0.4034,-3.76120011569356,-6.48074069840786,-3.47602664488645
"5c8fcb13dd3b360015b4dff6_dvbq9",30,"Male","Master","Portugal","Caucasian","05/08/2022","10:22:53",35.4983,0.168583333333333,"2195x1084",2.37938,61.28,"chrome","103.0.0","Desktop","Windows 10","Müller-Lyer",1,1,88,"MullerLyer_str28.0_diff0.1458",28,"1",0.14575,"arrowdown",1,711,447,"1.2",0.136059444407096,0.381772183376421,0.5263,3.36729582998647,5.29150262212918,3.03658897187566
"5c8fcb13dd3b360015b4dff6_dvbq9",30,"Male","Master","Portugal","Caucasian","05/08/2022","10:22:53",35.4983,0.168583333333333,"2195x1084",2.37938,61.28,"chrome","103.0.0","Desktop","Windows 10","Müller-Lyer",1,1,89,"MullerLyer_str28.0_diff0.46",28,"1",0.46,"arrowup",0,737,491,"1.2",0.378436435720245,0.678232998312527,0.7719,3.36729582998647,5.29150262212918,3.03658897187566
"5c8fcb13dd3b360015b4dff6_dvbq9",30,"Male","Master","Portugal","Caucasian","05/08/2022","10:22:53",35.4983,0.168583333333333,"2195x1084",2.37938,61.28,"chrome","103.0.0","Desktop","Windows 10","Müller-Lyer",1,1,90,"MullerLyer_str14.0_diff0.0656",14,"1",0.06565,"arrowdown",1,814,498,"1.2",0.0635849416251106,0.256222559506379,0.4034,2.70805020110221,3.74165738677394,2.41014226417523
"5c8fcb13dd3b360015b4dff6_dvbq9",30,"Male","Master","Portugal","Caucasian","05/08/2022","10:22:53",35.4983,0.168583333333333,"2195x1084",2.37938,61.28,"chrome","103.0.0","Desktop","Windows 10","Müller-Lyer",1,1,91,"MullerLyer_str-42.0_diff0.1458",-42,"1",0.14575,"arrowup",0,994,437,"1.2",0.136059444407096,0.381772183376421,0.5263,-3.76120011569356,-6.48074069840786,-3.47602664488645
"5c8fcb13dd3b360015b4dff6_dvbq9",30,"Male","Master","Portugal","Caucasian","05/08/2022","10:22:53",35.4983,0.168583333333333,"2195x1084",2.37938,61.28,"chrome","103.0.0","Desktop","Windows 10","Müller-Lyer",1,1,92,"MullerLyer_str-28.0_diff-0.1458",-28,"-1",0.14575,"arrowdown",0,520,479,"1.2",0.136059444407096,0.381772183376421,0.5263,-3.36729582998647,-5.29150262212918,-3.03658897187566
"5c8fcb13dd3b360015b4dff6_dvbq9",30,"Male","Master","Portugal","Caucasian","05/08/2022","10:22:53",35.4983,0.168583333333333,"2195x1084",2.37938,61.28,"chrome","103.0.0","Desktop","Windows 10","Müller-Lyer",1,1,93,"MullerLyer_str0.0_diff0.1458",0,"1",0.14575,"arrowup",0,743,540,"1.2",0.136059444407096,0.381772183376421,0.5263,0,0,0
"5c8fcb13dd3b360015b4dff6_dvbq9",30,"Male","Master","Portugal","Caucasian","05/08/2022","10:22:53",35.4983,0.168583333333333,"2195x1084",2.37938,61.28,"chrome","103.0.0","Desktop","Windows 10","Müller-Lyer",1,1,94,"MullerLyer_str-14.0_diff0.0656",-14,"1",0.06565,"arrowup",0,731,451,"1.2",0.0635849416251106,0.256222559506379,0.4034,-2.70805020110221,-3.74165738677394,-2.41014226417523
"5c8fcb13dd3b360015b4dff6_dvbq9",30,"Male","Master","Portugal","Caucasian","05/08/2022","10:22:53",35.4983,0.168583333333333,"2195x1084",2.37938,61.28,"chrome","103.0.0","Desktop","Windows 10","Müller-Lyer",1,1,95,"MullerLyer_str28.0_diff-0.2735",28,"-1",0.27349,"arrowup",1,599,424,"1.2",0.241761163031201,0.52296271377604,0.6491,3.36729582998647,5.29150262212918,3.03658897187566
"5c8fcb13dd3b360015b4dff6_dvbq9",30,"Male","Master","Portugal","Caucasian","05/08/2022","10:22:53",35.4983,0.168583333333333,"2195x1084",2.37938,61.28,"chrome","103.0.0","Desktop","Windows 10","Müller-Lyer",1,1,96,"MullerLyer_str-14.0_diff-0.0656",-14,"-1",0.06565,"arrowdown",0,956,527,"1.2",0.0635849416251106,0.256222559506379,0.4034,-2.70805020110221,-3.74165738677394,-2.41014226417523
"5c8fcb13dd3b360015b4dff6_dvbq9",30,"Male","Master","Portugal","Caucasian","05/08/2022","10:22:53",35.4983,0.168583333333333,"2195x1084",2.37938,61.28,"chrome","103.0.0","Desktop","Windows 10","Müller-Lyer",1,1,97,"MullerLyer_str-14.0_diff-0.2735",-14,"-1",0.27349,"arrowdown",0,890,453,"1.2",0.241761163031201,0.52296271377604,0.6491,-2.70805020110221,-3.74165738677394,-2.41014226417523
"5c8fcb13dd3b360015b4dff6_dvbq9",30,"Male","Master","Portugal","Caucasian","05/08/2022","10:22:53",35.4983,0.168583333333333,"2195x1084",2.37938,61.28,"chrome","103.0.0","Desktop","Windows 10","Müller-Lyer",1,1,98,"MullerLyer_str14.0_diff0.2735",14,"1",0.27349,"arrowup",0,537,580,"1.2",0.241761163031201,0.52296271377604,0.6491,2.70805020110221,3.74165738677394,2.41014226417523
"5c8fcb13dd3b360015b4dff6_dvbq9",30,"Male","Master","Portugal","Caucasian","05/08/2022","10:22:53",35.4983,0.168583333333333,"2195x1084",2.37938,61.28,"chrome","103.0.0","Desktop","Windows 10","Müller-Lyer",1,1,99,"MullerLyer_str42.0_diff-0.2735",42,"-1",0.27349,"arrowup",1,896,355,"1.2",0.241761163031201,0.52296271377604,0.6491,3.76120011569356,6.48074069840786,3.47602664488645
"5c8fcb13dd3b360015b4dff6_dvbq9",30,"Male","Master","Portugal","Caucasian","05/08/2022","10:22:53",35.4983,0.168583333333333,"2195x1084",2.37938,61.28,"chrome","103.0.0","Desktop","Windows 10","Müller-Lyer",1,1,100,"MullerLyer_str-14.0_diff0.2735",-14,"1",0.27349,"arrowup",0,958,312,"1.2",0.241761163031201,0.52296271377604,0.6491,-2.70805020110221,-3.74165738677394,-2.41014226417523
"5c8fcb13dd3b360015b4dff6_dvbq9",30,"Male","Master","Portugal","Caucasian","05/08/2022","10:22:53",35.4983,0.168583333333333,"2195x1084",2.37938,61.28,"chrome","103.0.0","Desktop","Windows 10","Müller-Lyer",1,1,101,"MullerLyer_str14.0_diff-0.2735",14,"-1",0.27349,"arrowdown",0,535,587,"1.2",0.241761163031201,0.52296271377604,0.6491,2.70805020110221,3.74165738677394,2.41014226417523
"5c8fcb13dd3b360015b4dff6_dvbq9",30,"Male","Master","Portugal","Caucasian","05/08/2022","10:22:53",35.4983,0.168583333333333,"2195x1084",2.37938,61.28,"chrome","103.0.0","Desktop","Windows 10","Müller-Lyer",1,1,102,"MullerLyer_str42.0_diff0.46",42,"1",0.46,"arrowup",0,594,838,"1.2",0.378436435720245,0.678232998312527,0.7719,3.76120011569356,6.48074069840786,3.47602664488645
"5c8fcb13dd3b360015b4dff6_dvbq9",30,"Male","Master","Portugal","Caucasian","05/08/2022","10:22:53",35.4983,0.168583333333333,"2195x1084",2.37938,61.28,"chrome","103.0.0","Desktop","Windows 10","Müller-Lyer",1,1,103,"MullerLyer_str-28.0_diff0.46",-28,"1",0.46,"arrowup",0,977,492,"1.2",0.378436435720245,0.678232998312527,0.7719,-3.36729582998647,-5.29150262212918,-3.03658897187566
"5c8fcb13dd3b360015b4dff6_dvbq9",30,"Male","Master","Portugal","Caucasian","05/08/2022","10:22:53",35.4983,0.168583333333333,"2195x1084",2.37938,61.28,"chrome","103.0.0","Desktop","Windows 10","Müller-Lyer",1,1,104,"MullerLyer_str14.0_diff-0.46",14,"-1",0.46,"arrowdown",0,813,494,"1.2",0.378436435720245,0.678232998312527,0.7719,2.70805020110221,3.74165738677394,2.41014226417523
"5c8fcb13dd3b360015b4dff6_dvbq9",30,"Male","Master","Portugal","Caucasian","05/08/2022","10:22:53",35.4983,0.168583333333333,"2195x1084",2.37938,61.28,"chrome","103.0.0","Desktop","Windows 10","Müller-Lyer",1,1,105,"MullerLyer_str14.0_diff0.1458",14,"1",0.14575,"arrowdown",1,935,479,"1.2",0.136059444407096,0.381772183376421,0.5263,2.70805020110221,3.74165738677394,2.41014226417523
"5c8fcb13dd3b360015b4dff6_dvbq9",30,"Male","Master","Portugal","Caucasian","05/08/2022","10:22:53",35.4983,0.168583333333333,"2195x1084",2.37938,61.28,"chrome","103.0.0","Desktop","Windows 10","Müller-Lyer",1,1,106,"MullerLyer_str-28.0_diff-0.46",-28,"-1",0.46,"arrowdown",0,987,527,"1.2",0.378436435720245,0.678232998312527,0.7719,-3.36729582998647,-5.29150262212918,-3.03658897187566
"5c8fcb13dd3b360015b4dff6_dvbq9",30,"Male","Master","Portugal","Caucasian","05/08/2022","10:22:53",35.4983,0.168583333333333,"2195x1084",2.37938,61.28,"chrome","103.0.0","Desktop","Windows 10","Müller-Lyer",1,1,107,"MullerLyer_str42.0_diff0.1458",42,"1",0.14575,"arrowdown",1,835,487,"1.2",0.136059444407096,0.381772183376421,0.5263,3.76120011569356,6.48074069840786,3.47602664488645
"5c8fcb13dd3b360015b4dff6_dvbq9",30,"Male","Master","Portugal","Caucasian","05/08/2022","10:22:53",35.4983,0.168583333333333,"2195x1084",2.37938,61.28,"chrome","103.0.0","Desktop","Windows 10","Müller-Lyer",1,1,108,"MullerLyer_str42.0_diff-0.46",42,"-1",0.46,"arrowdown",0,756,1305,"1.2",0.378436435720245,0.678232998312527,0.7719,3.76120011569356,6.48074069840786,3.47602664488645
"5c8fcb13dd3b360015b4dff6_dvbq9",30,"Male","Master","Portugal","Caucasian","05/08/2022","10:22:53",35.4983,0.168583333333333,"2195x1084",2.37938,61.28,"chrome","103.0.0","Desktop","Windows 10","Müller-Lyer",1,1,109,"MullerLyer_str14.0_diff-0.0656",14,"-1",0.06565,"arrowup",1,549,854,"1.2",0.0635849416251106,0.256222559506379,0.4034,2.70805020110221,3.74165738677394,2.41014226417523
"5c8fcb13dd3b360015b4dff6_dvbq9",30,"Male","Master","Portugal","Caucasian","05/08/2022","10:22:53",35.4983,0.168583333333333,"2195x1084",2.37938,61.28,"chrome","103.0.0","Desktop","Windows 10","Müller-Lyer",1,1,110,"MullerLyer_str28.0_diff-0.0656",28,"-1",0.06565,"arrowup",1,838,611,"1.2",0.0635849416251106,0.256222559506379,0.4034,3.36729582998647,5.29150262212918,3.03658897187566
"5c8fcb13dd3b360015b4dff6_dvbq9",30,"Male","Master","Portugal","Caucasian","05/08/2022","10:22:53",35.4983,0.168583333333333,"2195x1084",2.37938,61.28,"chrome","103.0.0","Desktop","Windows 10","Müller-Lyer",1,1,111,"MullerLyer_str-28.0_diff-0.2735",-28,"-1",0.27349,"arrowdown",0,649,522,"1.2",0.241761163031201,0.52296271377604,0.6491,-3.36729582998647,-5.29150262212918,-3.03658897187566
"5c8fcb13dd3b360015b4dff6_dvbq9",30,"Male","Master","Portugal","Caucasian","05/08/2022","10:22:53",35.4983,0.168583333333333,"2195x1084",2.37938,61.28,"chrome","103.0.0","Desktop","Windows 10","Müller-Lyer",1,1,112,"MullerLyer_str-42.0_diff0.2735",-42,"1",0.27349,"arrowup",0,672,500,"1.2",0.241761163031201,0.52296271377604,0.6491,-3.76120011569356,-6.48074069840786,-3.47602664488645
"5c8fcb13dd3b360015b4dff6_dvbq9",30,"Male","Master","Portugal","Caucasian","05/08/2022","10:22:53",35.4983,0.168583333333333,"2195x1084",2.37938,61.28,"chrome","103.0.0","Desktop","Windows 10","Müller-Lyer",1,1,113,"MullerLyer_str-28.0_diff0.0656",-28,"1",0.06565,"arrowup",0,735,469,"1.2",0.0635849416251106,0.256222559506379,0.4034,-3.36729582998647,-5.29150262212918,-3.03658897187566
"5c8fcb13dd3b360015b4dff6_dvbq9",30,"Male","Master","Portugal","Caucasian","05/08/2022","10:22:53",35.4983,0.168583333333333,"2195x1084",2.37938,61.28,"chrome","103.0.0","Desktop","Windows 10","Müller-Lyer",1,1,114,"MullerLyer_str42.0_diff0.2735",42,"1",0.27349,"arrowdown",1,868,457,"1.2",0.241761163031201,0.52296271377604,0.6491,3.76120011569356,6.48074069840786,3.47602664488645
"5c8fcb13dd3b360015b4dff6_dvbq9",30,"Male","Master","Portugal","Caucasian","05/08/2022","10:22:53",35.4983,0.168583333333333,"2195x1084",2.37938,61.28,"chrome","103.0.0","Desktop","Windows 10","Müller-Lyer",1,1,115,"MullerLyer_str28.0_diff0.0656",28,"1",0.06565,"arrowup",0,827,844,"1.2",0.0635849416251106,0.256222559506379,0.4034,3.36729582998647,5.29150262212918,3.03658897187566
"5c8fcb13dd3b360015b4dff6_dvbq9",30,"Male","Master","Portugal","Caucasian","05/08/2022","10:22:53",35.4983,0.168583333333333,"2195x1084",2.37938,61.28,"chrome","103.0.0","Desktop","Windows 10","Müller-Lyer",1,1,116,"MullerLyer_str42.0_diff0.0656",42,"1",0.06565,"arrowdown",1,798,955,"1.2",0.0635849416251106,0.256222559506379,0.4034,3.76120011569356,6.48074069840786,3.47602664488645
"5c8fcb13dd3b360015b4dff6_dvbq9",30,"Male","Master","Portugal","Caucasian","05/08/2022","10:22:53",35.4983,0.168583333333333,"2195x1084",2.37938,61.28,"chrome","103.0.0","Desktop","Windows 10","Delboeuf",1,2,1,"Delboeuf_str1.86_diff-0.1107",1.86,"-1",0.11066,"arrowleft",1,606,749,"1.2",0.104954433217512,0.332655978452214,0.4801,1.05082162483176,1.36381816969859,1.2298089464641
"5c8fcb13dd3b360015b4dff6_dvbq9",30,"Male","Master","Portugal","Caucasian","05/08/2022","10:22:53",35.4983,0.168583333333333,"2195x1084",2.37938,61.28,"chrome","103.0.0","Desktop","Windows 10","Delboeuf",1,2,2,"Delboeuf_str0.0_diff-0.4252",0,"-1",0.4252,"arrowright",0,703,823,"1.2",0.354312154749544,0.652073615476044,0.752,0,0,0
"5c8fcb13dd3b360015b4dff6_dvbq9",30,"Male","Master","Portugal","Caucasian","05/08/2022","10:22:53",35.4983,0.168583333333333,"2195x1084",2.37938,61.28,"chrome","103.0.0","Desktop","Windows 10","Delboeuf",1,2,3,"Delboeuf_str-1.24_diff-0.1107",-1.24,"-1",0.11066,"arrowright",0,601,862,"1.2",0.104954433217512,0.332655978452214,0.4801,-0.806475865866949,-1.113552872566,-1.07433707098897
"5c8fcb13dd3b360015b4dff6_dvbq9",30,"Male","Master","Portugal","Caucasian","05/08/2022","10:22:53",35.4983,0.168583333333333,"2195x1084",2.37938,61.28,"chrome","103.0.0","Desktop","Windows 10","Delboeuf",1,2,4,"Delboeuf_str0.62_diff0.1107",0.62,"1",0.11066,"arrowright",1,628,993,"1.2",0.104954433217512,0.332655978452214,0.4801,0.482426149244293,0.787400787401181,0.85270189832816
"5c8fcb13dd3b360015b4dff6_dvbq9",30,"Male","Master","Portugal","Caucasian","05/08/2022","10:22:53",35.4983,0.168583333333333,"2195x1084",2.37938,61.28,"chrome","103.0.0","Desktop","Windows 10","Delboeuf",1,2,5,"Delboeuf_str0.0_diff-0.1107",0,"-1",0.11066,"arrowright",0,843,938,"1.2",0.104954433217512,0.332655978452214,0.4801,0,0,0
"5c8fcb13dd3b360015b4dff6_dvbq9",30,"Male","Master","Portugal","Caucasian","05/08/2022","10:22:53",35.4983,0.168583333333333,"2195x1084",2.37938,61.28,"chrome","103.0.0","Desktop","Windows 10","Delboeuf",1,2,6,"Delboeuf_str-1.86_diff0.1107",-1.86,"1",0.11066,"arrowleft",0,615,734,"1.2",0.104954433217512,0.332655978452214,0.4801,-1.05082162483176,-1.36381816969859,-1.2298089464641
"5c8fcb13dd3b360015b4dff6_dvbq9",30,"Male","Master","Portugal","Caucasian","05/08/2022","10:22:53",35.4983,0.168583333333333,"2195x1084",2.37938,61.28,"chrome","103.0.0","Desktop","Windows 10","Delboeuf",1,2,7,"Delboeuf_str0.62_diff-0.4252",0.62,"-1",0.4252,"arrowright",0,529,910,"1.2",0.354312154749544,0.652073615476044,0.752,0.482426149244293,0.787400787401181,0.85270189832816
"5c8fcb13dd3b360015b4dff6_dvbq9",30,"Male","Master","Portugal","Caucasian","05/08/2022","10:22:53",35.4983,0.168583333333333,"2195x1084",2.37938,61.28,"chrome","103.0.0","Desktop","Windows 10","Delboeuf",1,2,8,"Delboeuf_str-1.86_diff0.2338",-1.86,"1",0.23378,"arrowleft",0,912,588,"1.2",0.210082627579345,0.483508014411344,0.616,-1.05082162483176,-1.36381816969859,-1.2298089464641
"5c8fcb13dd3b360015b4dff6_dvbq9",30,"Male","Master","Portugal","Caucasian","05/08/2022","10:22:53",35.4983,0.168583333333333,"2195x1084",2.37938,61.28,"chrome","103.0.0","Desktop","Windows 10","Delboeuf",1,2,9,"Delboeuf_str1.24_diff0.4252",1.24,"1",0.4252,"arrowleft",0,788,938,"1.2",0.354312154749544,0.652073615476044,0.752,0.806475865866949,1.113552872566,1.07433707098897
"5c8fcb13dd3b360015b4dff6_dvbq9",30,"Male","Master","Portugal","Caucasian","05/08/2022","10:22:53",35.4983,0.168583333333333,"2195x1084",2.37938,61.28,"chrome","103.0.0","Desktop","Windows 10","Delboeuf",1,2,10,"Delboeuf_str1.86_diff-0.4252",1.86,"-1",0.4252,"arrowleft",1,535,1330,"1.2",0.354312154749544,0.652073615476044,0.752,1.05082162483176,1.36381816969859,1.2298089464641
"5c8fcb13dd3b360015b4dff6_dvbq9",30,"Male","Master","Portugal","Caucasian","05/08/2022","10:22:53",35.4983,0.168583333333333,"2195x1084",2.37938,61.28,"chrome","103.0.0","Desktop","Windows 10","Delboeuf",1,2,11,"Delboeuf_str0.0_diff0.7",0,"1",0.7,"arrowleft",0,868,750,"1.2",0.53062825106217,0.836660026534076,0.8879,0,0,0
"5c8fcb13dd3b360015b4dff6_dvbq9",30,"Male","Master","Portugal","Caucasian","05/08/2022","10:22:53",35.4983,0.168583333333333,"2195x1084",2.37938,61.28,"chrome","103.0.0","Desktop","Windows 10","Delboeuf",1,2,12,"Delboeuf_str1.86_diff-0.7",1.86,"-1",0.7,"arrowright",0,638,850,"1.2",0.53062825106217,0.836660026534076,0.8879,1.05082162483176,1.36381816969859,1.2298089464641
"5c8fcb13dd3b360015b4dff6_dvbq9",30,"Male","Master","Portugal","Caucasian","05/08/2022","10:22:53",35.4983,0.168583333333333,"2195x1084",2.37938,61.28,"chrome","103.0.0","Desktop","Windows 10","Delboeuf",1,2,13,"Delboeuf_str0.0_diff0.4252",0,"1",0.4252,"arrowleft",0,664,520,"1.2",0.354312154749544,0.652073615476044,0.752,0,0,0
"5c8fcb13dd3b360015b4dff6_dvbq9",30,"Male","Master","Portugal","Caucasian","05/08/2022","10:22:53",35.4983,0.168583333333333,"2195x1084",2.37938,61.28,"chrome","103.0.0","Desktop","Windows 10","Delboeuf",1,2,14,"Delboeuf_str-1.24_diff0.2338",-1.24,"1",0.23378,"arrowleft",0,629,642,"1.2",0.210082627579345,0.483508014411344,0.616,-0.806475865866949,-1.113552872566,-1.07433707098897
"5c8fcb13dd3b360015b4dff6_dvbq9",30,"Male","Master","Portugal","Caucasian","05/08/2022","10:22:53",35.4983,0.168583333333333,"2195x1084",2.37938,61.28,"chrome","103.0.0","Desktop","Windows 10","Delboeuf",1,2,15,"Delboeuf_str1.24_diff0.2338",1.24,"1",0.23378,"arrowleft",0,886,1253,"1.2",0.210082627579345,0.483508014411344,0.616,0.806475865866949,1.113552872566,1.07433707098897
"5c8fcb13dd3b360015b4dff6_dvbq9",30,"Male","Master","Portugal","Caucasian","05/08/2022","10:22:53",35.4983,0.168583333333333,"2195x1084",2.37938,61.28,"chrome","103.0.0","Desktop","Windows 10","Delboeuf",1,2,16,"Delboeuf_str1.86_diff0.1107",1.86,"1",0.11066,"arrowleft",0,742,979,"1.2",0.104954433217512,0.332655978452214,0.4801,1.05082162483176,1.36381816969859,1.2298089464641
"5c8fcb13dd3b360015b4dff6_dvbq9",30,"Male","Master","Portugal","Caucasian","05/08/2022","10:22:53",35.4983,0.168583333333333,"2195x1084",2.37938,61.28,"chrome","103.0.0","Desktop","Windows 10","Delboeuf",1,2,17,"Delboeuf_str0.62_diff0.4252",0.62,"1",0.4252,"arrowleft",0,584,584,"1.2",0.354312154749544,0.652073615476044,0.752,0.482426149244293,0.787400787401181,0.85270189832816
"5c8fcb13dd3b360015b4dff6_dvbq9",30,"Male","Master","Portugal","Caucasian","05/08/2022","10:22:53",35.4983,0.168583333333333,"2195x1084",2.37938,61.28,"chrome","103.0.0","Desktop","Windows 10","Delboeuf",1,2,18,"Delboeuf_str1.24_diff-0.4252",1.24,"-1",0.4252,"arrowright",0,820,815,"1.2",0.354312154749544,0.652073615476044,0.752,0.806475865866949,1.113552872566,1.07433707098897
"5c8fcb13dd3b360015b4dff6_dvbq9",30,"Male","Master","Portugal","Caucasian","05/08/2022","10:22:53",35.4983,0.168583333333333,"2195x1084",2.37938,61.28,"chrome","103.0.0","Desktop","Windows 10","Delboeuf",1,2,19,"Delboeuf_str1.24_diff-0.7",1.24,"-1",0.7,"arrowright",0,524,807,"1.2",0.53062825106217,0.836660026534076,0.8879,0.806475865866949,1.113552872566,1.07433707098897
"5c8fcb13dd3b360015b4dff6_dvbq9",30,"Male","Master","Portugal","Caucasian","05/08/2022","10:22:53",35.4983,0.168583333333333,"2195x1084",2.37938,61.28,"chrome","103.0.0","Desktop","Windows 10","Delboeuf",1,2,20,"Delboeuf_str-1.86_diff0.4252",-1.86,"1",0.4252,"arrowleft",0,510,1016,"1.2",0.354312154749544,0.652073615476044,0.752,-1.05082162483176,-1.36381816969859,-1.2298089464641
"5c8fcb13dd3b360015b4dff6_dvbq9",30,"Male","Master","Portugal","Caucasian","05/08/2022","10:22:53",35.4983,0.168583333333333,"2195x1084",2.37938,61.28,"chrome","103.0.0","Desktop","Windows 10","Delboeuf",1,2,21,"Delboeuf_str-0.62_diff0.1107",-0.62,"1",0.11066,"arrowleft",0,1000,737,"1.2",0.104954433217512,0.332655978452214,0.4801,-0.482426149244293,-0.787400787401181,-0.85270189832816
"5c8fcb13dd3b360015b4dff6_dvbq9",30,"Male","Master","Portugal","Caucasian","05/08/2022","10:22:53",35.4983,0.168583333333333,"2195x1084",2.37938,61.28,"chrome","103.0.0","Desktop","Windows 10","Delboeuf",1,2,22,"Delboeuf_str1.24_diff-0.2338",1.24,"-1",0.23378,"arrowright",0,503,1018,"1.2",0.210082627579345,0.483508014411344,0.616,0.806475865866949,1.113552872566,1.07433707098897
"5c8fcb13dd3b360015b4dff6_dvbq9",30,"Male","Master","Portugal","Caucasian","05/08/2022","10:22:53",35.4983,0.168583333333333,"2195x1084",2.37938,61.28,"chrome","103.0.0","Desktop","Windows 10","Delboeuf",1,2,23,"Delboeuf_str0.0_diff0.2338",0,"1",0.23378,"arrowleft",0,739,818,"1.2",0.210082627579345,0.483508014411344,0.616,0,0,0
"5c8fcb13dd3b360015b4dff6_dvbq9",30,"Male","Master","Portugal","Caucasian","05/08/2022","10:22:53",35.4983,0.168583333333333,"2195x1084",2.37938,61.28,"chrome","103.0.0","Desktop","Windows 10","Delboeuf",1,2,24,"Delboeuf_str0.62_diff0.7",0.62,"1",0.7,"arrowleft",0,683,628,"1.2",0.53062825106217,0.836660026534076,0.8879,0.482426149244293,0.787400787401181,0.85270189832816
"5c8fcb13dd3b360015b4dff6_dvbq9",30,"Male","Master","Portugal","Caucasian","05/08/2022","10:22:53",35.4983,0.168583333333333,"2195x1084",2.37938,61.28,"chrome","103.0.0","Desktop","Windows 10","Delboeuf",1,2,25,"Delboeuf_str0.62_diff-0.1107",0.62,"-1",0.11066,"arrowleft",1,531,1439,"1.2",0.104954433217512,0.332655978452214,0.4801,0.482426149244293,0.787400787401181,0.85270189832816
"5c8fcb13dd3b360015b4dff6_dvbq9",30,"Male","Master","Portugal","Caucasian","05/08/2022","10:22:53",35.4983,0.168583333333333,"2195x1084",2.37938,61.28,"chrome","103.0.0","Desktop","Windows 10","Delboeuf",1,2,26,"Delboeuf_str-1.24_diff0.1107",-1.24,"1",0.11066,"arrowleft",0,672,566,"1.2",0.104954433217512,0.332655978452214,0.4801,-0.806475865866949,-1.113552872566,-1.07433707098897
"5c8fcb13dd3b360015b4dff6_dvbq9",30,"Male","Master","Portugal","Caucasian","05/08/2022","10:22:53",35.4983,0.168583333333333,"2195x1084",2.37938,61.28,"chrome","103.0.0","Desktop","Windows 10","Delboeuf",1,2,27,"Delboeuf_str-1.86_diff-0.7",-1.86,"-1",0.7,"arrowright",0,967,645,"1.2",0.53062825106217,0.836660026534076,0.8879,-1.05082162483176,-1.36381816969859,-1.2298089464641
"5c8fcb13dd3b360015b4dff6_dvbq9",30,"Male","Master","Portugal","Caucasian","05/08/2022","10:22:53",35.4983,0.168583333333333,"2195x1084",2.37938,61.28,"chrome","103.0.0","Desktop","Windows 10","Delboeuf",1,2,28,"Delboeuf_str-1.24_diff0.4252",-1.24,"1",0.4252,"arrowleft",0,535,603,"1.2",0.354312154749544,0.652073615476044,0.752,-0.806475865866949,-1.113552872566,-1.07433707098897
"5c8fcb13dd3b360015b4dff6_dvbq9",30,"Male","Master","Portugal","Caucasian","05/08/2022","10:22:53",35.4983,0.168583333333333,"2195x1084",2.37938,61.28,"chrome","103.0.0","Desktop","Windows 10","Delboeuf",1,2,29,"Delboeuf_str0.0_diff-0.2338",0,"-1",0.23378,"arrowright",0,522,1055,"1.2",0.210082627579345,0.483508014411344,0.616,0,0,0
"5c8fcb13dd3b360015b4dff6_dvbq9",30,"Male","Master","Portugal","Caucasian","05/08/2022","10:22:53",35.4983,0.168583333333333,"2195x1084",2.37938,61.28,"chrome","103.0.0","Desktop","Windows 10","Delboeuf",1,2,30,"Delboeuf_str0.62_diff-0.7",0.62,"-1",0.7,"arrowright",0,948,690,"1.2",0.53062825106217,0.836660026534076,0.8879,0.482426149244293,0.787400787401181,0.85270189832816
"5c8fcb13dd3b360015b4dff6_dvbq9",30,"Male","Master","Portugal","Caucasian","05/08/2022","10:22:53",35.4983,0.168583333333333,"2195x1084",2.37938,61.28,"chrome","103.0.0","Desktop","Windows 10","Delboeuf",1,2,31,"Delboeuf_str1.86_diff-0.2338",1.86,"-1",0.23378,"arrowleft",1,858,580,"1.2",0.210082627579345,0.483508014411344,0.616,1.05082162483176,1.36381816969859,1.2298089464641
"5c8fcb13dd3b360015b4dff6_dvbq9",30,"Male","Master","Portugal","Caucasian","05/08/2022","10:22:53",35.4983,0.168583333333333,"2195x1084",2.37938,61.28,"chrome","103.0.0","Desktop","Windows 10","Delboeuf",1,2,32,"Delboeuf_str-1.86_diff-0.1107",-1.86,"-1",0.11066,"arrowright",0,933,643,"1.2",0.104954433217512,0.332655978452214,0.4801,-1.05082162483176,-1.36381816969859,-1.2298089464641
"5c8fcb13dd3b360015b4dff6_dvbq9",30,"Male","Master","Portugal","Caucasian","05/08/2022","10:22:53",35.4983,0.168583333333333,"2195x1084",2.37938,61.28,"chrome","103.0.0","Desktop","Windows 10","Delboeuf",1,2,33,"Delboeuf_str1.24_diff0.1107",1.24,"1",0.11066,"arrowright",1,792,882,"1.2",0.104954433217512,0.332655978452214,0.4801,0.806475865866949,1.113552872566,1.07433707098897
"5c8fcb13dd3b360015b4dff6_dvbq9",30,"Male","Master","Portugal","Caucasian","05/08/2022","10:22:53",35.4983,0.168583333333333,"2195x1084",2.37938,61.28,"chrome","103.0.0","Desktop","Windows 10","Delboeuf",1,2,34,"Delboeuf_str0.62_diff-0.2338",0.62,"-1",0.23378,"arrowright",0,548,747,"1.2",0.210082627579345,0.483508014411344,0.616,0.482426149244293,0.787400787401181,0.85270189832816
"5c8fcb13dd3b360015b4dff6_dvbq9",30,"Male","Master","Portugal","Caucasian","05/08/2022","10:22:53",35.4983,0.168583333333333,"2195x1084",2.37938,61.28,"chrome","103.0.0","Desktop","Windows 10","Delboeuf",1,2,35,"Delboeuf_str-0.62_diff-0.2338",-0.62,"-1",0.23378,"arrowright",0,907,540,"1.2",0.210082627579345,0.483508014411344,0.616,-0.482426149244293,-0.787400787401181,-0.85270189832816
"5c8fcb13dd3b360015b4dff6_dvbq9",30,"Male","Master","Portugal","Caucasian","05/08/2022","10:22:53",35.4983,0.168583333333333,"2195x1084",2.37938,61.28,"chrome","103.0.0","Desktop","Windows 10","Delboeuf",1,2,36,"Delboeuf_str-0.62_diff0.2338",-0.62,"1",0.23378,"arrowleft",0,833,499,"1.2",0.210082627579345,0.483508014411344,0.616,-0.482426149244293,-0.787400787401181,-0.85270189832816
"5c8fcb13dd3b360015b4dff6_dvbq9",30,"Male","Master","Portugal","Caucasian","05/08/2022","10:22:53",35.4983,0.168583333333333,"2195x1084",2.37938,61.28,"chrome","103.0.0","Desktop","Windows 10","Delboeuf",1,2,37,"Delboeuf_str-1.24_diff-0.2338",-1.24,"-1",0.23378,"arrowright",0,909,557,"1.2",0.210082627579345,0.483508014411344,0.616,-0.806475865866949,-1.113552872566,-1.07433707098897
"5c8fcb13dd3b360015b4dff6_dvbq9",30,"Male","Master","Portugal","Caucasian","05/08/2022","10:22:53",35.4983,0.168583333333333,"2195x1084",2.37938,61.28,"chrome","103.0.0","Desktop","Windows 10","Delboeuf",1,2,38,"Delboeuf_str0.0_diff-0.7",0,"-1",0.7,"arrowright",0,679,545,"1.2",0.53062825106217,0.836660026534076,0.8879,0,0,0
"5c8fcb13dd3b360015b4dff6_dvbq9",30,"Male","Master","Portugal","Caucasian","05/08/2022","10:22:53",35.4983,0.168583333333333,"2195x1084",2.37938,61.28,"chrome","103.0.0","Desktop","Windows 10","Delboeuf",1,2,39,"Delboeuf_str-1.86_diff-0.4252",-1.86,"-1",0.4252,"arrowright",0,783,557,"1.2",0.354312154749544,0.652073615476044,0.752,-1.05082162483176,-1.36381816969859,-1.2298089464641
"5c8fcb13dd3b360015b4dff6_dvbq9",30,"Male","Master","Portugal","Caucasian","05/08/2022","10:22:53",35.4983,0.168583333333333,"2195x1084",2.37938,61.28,"chrome","103.0.0","Desktop","Windows 10","Delboeuf",1,2,40,"Delboeuf_str1.86_diff0.4252",1.86,"1",0.4252,"arrowleft",0,996,993,"1.2",0.354312154749544,0.652073615476044,0.752,1.05082162483176,1.36381816969859,1.2298089464641
"5c8fcb13dd3b360015b4dff6_dvbq9",30,"Male","Master","Portugal","Caucasian","05/08/2022","10:22:53",35.4983,0.168583333333333,"2195x1084",2.37938,61.28,"chrome","103.0.0","Desktop","Windows 10","Delboeuf",1,2,41,"Delboeuf_str-0.62_diff-0.7",-0.62,"-1",0.7,"arrowright",0,904,470,"1.2",0.53062825106217,0.836660026534076,0.8879,-0.482426149244293,-0.787400787401181,-0.85270189832816
"5c8fcb13dd3b360015b4dff6_dvbq9",30,"Male","Master","Portugal","Caucasian","05/08/2022","10:22:53",35.4983,0.168583333333333,"2195x1084",2.37938,61.28,"chrome","103.0.0","Desktop","Windows 10","Delboeuf",1,2,42,"Delboeuf_str1.86_diff0.7",1.86,"1",0.7,"arrowright",1,955,631,"1.2",0.53062825106217,0.836660026534076,0.8879,1.05082162483176,1.36381816969859,1.2298089464641
"5c8fcb13dd3b360015b4dff6_dvbq9",30,"Male","Master","Portugal","Caucasian","05/08/2022","10:22:53",35.4983,0.168583333333333,"2195x1084",2.37938,61.28,"chrome","103.0.0","Desktop","Windows 10","Delboeuf",1,2,43,"Delboeuf_str-0.62_diff0.7",-0.62,"1",0.7,"arrowleft",0,651,574,"1.2",0.53062825106217,0.836660026534076,0.8879,-0.482426149244293,-0.787400787401181,-0.85270189832816
"5c8fcb13dd3b360015b4dff6_dvbq9",30,"Male","Master","Portugal","Caucasian","05/08/2022","10:22:53",35.4983,0.168583333333333,"2195x1084",2.37938,61.28,"chrome","103.0.0","Desktop","Windows 10","Delboeuf",1,2,44,"Delboeuf_str0.0_diff0.1107",0,"1",0.11066,"arrowright",1,876,555,"1.2",0.104954433217512,0.332655978452214,0.4801,0,0,0
"5c8fcb13dd3b360015b4dff6_dvbq9",30,"Male","Master","Portugal","Caucasian","05/08/2022","10:22:53",35.4983,0.168583333333333,"2195x1084",2.37938,61.28,"chrome","103.0.0","Desktop","Windows 10","Delboeuf",1,2,45,"Delboeuf_str-0.62_diff0.4252",-0.62,"1",0.4252,"arrowleft",0,892,496,"1.2",0.354312154749544,0.652073615476044,0.752,-0.482426149244293,-0.787400787401181,-0.85270189832816
"5c8fcb13dd3b360015b4dff6_dvbq9",30,"Male","Master","Portugal","Caucasian","05/08/2022","10:22:53",35.4983,0.168583333333333,"2195x1084",2.37938,61.28,"chrome","103.0.0","Desktop","Windows 10","Delboeuf",1,2,46,"Delboeuf_str-0.62_diff-0.1107",-0.62,"-1",0.11066,"arrowright",0,775,459,"1.2",0.104954433217512,0.332655978452214,0.4801,-0.482426149244293,-0.787400787401181,-0.85270189832816
"5c8fcb13dd3b360015b4dff6_dvbq9",30,"Male","Master","Portugal","Caucasian","05/08/2022","10:22:53",35.4983,0.168583333333333,"2195x1084",2.37938,61.28,"chrome","103.0.0","Desktop","Windows 10","Delboeuf",1,2,47,"Delboeuf_str-1.24_diff-0.7",-1.24,"-1",0.7,"arrowright",0,983,411,"1.2",0.53062825106217,0.836660026534076,0.8879,-0.806475865866949,-1.113552872566,-1.07433707098897
"5c8fcb13dd3b360015b4dff6_dvbq9",30,"Male","Master","Portugal","Caucasian","05/08/2022","10:22:53",35.4983,0.168583333333333,"2195x1084",2.37938,61.28,"chrome","103.0.0","Desktop","Windows 10","Delboeuf",1,2,48,"Delboeuf_str1.24_diff-0.1107",1.24,"-1",0.11066,"arrowleft",1,963,533,"1.2",0.104954433217512,0.332655978452214,0.4801,0.806475865866949,1.113552872566,1.07433707098897
"5c8fcb13dd3b360015b4dff6_dvbq9",30,"Male","Master","Portugal","Caucasian","05/08/2022","10:22:53",35.4983,0.168583333333333,"2195x1084",2.37938,61.28,"chrome","103.0.0","Desktop","Windows 10","Delboeuf",1,2,49,"Delboeuf_str0.62_diff0.2338",0.62,"1",0.23378,"arrowleft",0,772,764,"1.2",0.210082627579345,0.483508014411344,0.616,0.482426149244293,0.787400787401181,0.85270189832816
"5c8fcb13dd3b360015b4dff6_dvbq9",30,"Male","Master","Portugal","Caucasian","05/08/2022","10:22:53",35.4983,0.168583333333333,"2195x1084",2.37938,61.28,"chrome","103.0.0","Desktop","Windows 10","Delboeuf",1,2,50,"Delboeuf_str-1.24_diff-0.4252",-1.24,"-1",0.4252,"arrowright",0,730,549,"1.2",0.354312154749544,0.652073615476044,0.752,-0.806475865866949,-1.113552872566,-1.07433707098897
"5c8fcb13dd3b360015b4dff6_dvbq9",30,"Male","Master","Portugal","Caucasian","05/08/2022","10:22:53",35.4983,0.168583333333333,"2195x1084",2.37938,61.28,"chrome","103.0.0","Desktop","Windows 10","Delboeuf",1,2,51,"Delboeuf_str-1.86_diff-0.2338",-1.86,"-1",0.23378,"arrowright",0,988,552,"1.2",0.210082627579345,0.483508014411344,0.616,-1.05082162483176,-1.36381816969859,-1.2298089464641
"5c8fcb13dd3b360015b4dff6_dvbq9",30,"Male","Master","Portugal","Caucasian","05/08/2022","10:22:53",35.4983,0.168583333333333,"2195x1084",2.37938,61.28,"chrome","103.0.0","Desktop","Windows 10","Delboeuf",1,2,52,"Delboeuf_str-0.62_diff-0.4252",-0.62,"-1",0.4252,"arrowright",0,592,567,"1.2",0.354312154749544,0.652073615476044,0.752,-0.482426149244293,-0.787400787401181,-0.85270189832816
"5c8fcb13dd3b360015b4dff6_dvbq9",30,"Male","Master","Portugal","Caucasian","05/08/2022","10:22:53",35.4983,0.168583333333333,"2195x1084",2.37938,61.28,"chrome","103.0.0","Desktop","Windows 10","Delboeuf",1,2,53,"Delboeuf_str1.86_diff0.2338",1.86,"1",0.23378,"arrowright",1,622,615,"1.2",0.210082627579345,0.483508014411344,0.616,1.05082162483176,1.36381816969859,1.2298089464641
"5c8fcb13dd3b360015b4dff6_dvbq9",30,"Male","Master","Portugal","Caucasian","05/08/2022","10:22:53",35.4983,0.168583333333333,"2195x1084",2.37938,61.28,"chrome","103.0.0","Desktop","Windows 10","Delboeuf",1,2,54,"Delboeuf_str1.24_diff0.7",1.24,"1",0.7,"arrowleft",0,668,985,"1.2",0.53062825106217,0.836660026534076,0.8879,0.806475865866949,1.113552872566,1.07433707098897
"5c8fcb13dd3b360015b4dff6_dvbq9",30,"Male","Master","Portugal","Caucasian","05/08/2022","10:22:53",35.4983,0.168583333333333,"2195x1084",2.37938,61.28,"chrome","103.0.0","Desktop","Windows 10","Delboeuf",1,2,55,"Delboeuf_str-1.24_diff0.7",-1.24,"1",0.7,"arrowleft",0,922,580,"1.2",0.53062825106217,0.836660026534076,0.8879,-0.806475865866949,-1.113552872566,-1.07433707098897
"5c8fcb13dd3b360015b4dff6_dvbq9",30,"Male","Master","Portugal","Caucasian","05/08/2022","10:22:53",35.4983,0.168583333333333,"2195x1084",2.37938,61.28,"chrome","103.0.0","Desktop","Windows 10","Delboeuf",1,2,56,"Delboeuf_str-1.86_diff0.7",-1.86,"1",0.7,"arrowleft",0,760,404,"1.2",0.53062825106217,0.836660026534076,0.8879,-1.05082162483176,-1.36381816969859,-1.2298089464641
"5c8fcb13dd3b360015b4dff6_dvbq9",30,"Male","Master","Portugal","Caucasian","05/08/2022","10:22:53",35.4983,0.168583333333333,"2195x1084",2.37938,61.28,"chrome","103.0.0","Desktop","Windows 10","Poggendorff",1,3,1,"Poggendorff_str0.0_diff0.0354",0,"1",0.03538,"arrowup",0,971,1505,"1.2",0.0347685090928065,0.188095720312824,0.3283,0,0,0
"5c8fcb13dd3b360015b4dff6_dvbq9",30,"Male","Master","Portugal","Caucasian","05/08/2022","10:22:53",35.4983,0.168583333333333,"2195x1084",2.37938,61.28,"chrome","103.0.0","Desktop","Windows 10","Poggendorff",1,3,2,"Poggendorff_str-38.4_diff-0.0354",-38.4,"-1",0.03538,"arrowdown",0,716,1288,"1.2",0.0347685090928065,0.188095720312824,0.3283,-3.67376581630389,-6.19677335393187,-3.373730661207
"5c8fcb13dd3b360015b4dff6_dvbq9",30,"Male","Master","Portugal","Caucasian","05/08/2022","10:22:53",35.4983,0.168583333333333,"2195x1084",2.37938,61.28,"chrome","103.0.0","Desktop","Windows 10","Poggendorff",1,3,3,"Poggendorff_str-38.4_diff0.1716",-38.4,"1",0.17162,"arrowup",0,814,815,"1.2",0.158387406498324,0.414270443068293,0.5557,-3.67376581630389,-6.19677335393187,-3.373730661207
"5c8fcb13dd3b360015b4dff6_dvbq9",30,"Male","Master","Portugal","Caucasian","05/08/2022","10:22:53",35.4983,0.168583333333333,"2195x1084",2.37938,61.28,"chrome","103.0.0","Desktop","Windows 10","Poggendorff",1,3,4,"Poggendorff_str-25.6_diff-0.1716",-25.6,"-1",0.17162,"arrowdown",0,836,555,"1.2",0.158387406498324,0.414270443068293,0.5557,-3.28091121578765,-5.05964425626941,-2.94722519891231
"5c8fcb13dd3b360015b4dff6_dvbq9",30,"Male","Master","Portugal","Caucasian","05/08/2022","10:22:53",35.4983,0.168583333333333,"2195x1084",2.37938,61.28,"chrome","103.0.0","Desktop","Windows 10","Poggendorff",1,3,5,"Poggendorff_str38.4_diff-0.1716",38.4,"-1",0.17162,"arrowup",1,977,810,"1.2",0.158387406498324,0.414270443068293,0.5557,3.67376581630389,6.19677335393187,3.373730661207
"5c8fcb13dd3b360015b4dff6_dvbq9",30,"Male","Master","Portugal","Caucasian","05/08/2022","10:22:53",35.4983,0.168583333333333,"2195x1084",2.37938,61.28,"chrome","103.0.0","Desktop","Windows 10","Poggendorff",1,3,6,"Poggendorff_str-25.6_diff-0.0864",-25.6,"-1",0.08636,"arrowdown",0,577,524,"1.2",0.0828326582932122,0.293870719875254,0.442,-3.28091121578765,-5.05964425626941,-2.94722519891231
"5c8fcb13dd3b360015b4dff6_dvbq9",30,"Male","Master","Portugal","Caucasian","05/08/2022","10:22:53",35.4983,0.168583333333333,"2195x1084",2.37938,61.28,"chrome","103.0.0","Desktop","Windows 10","Poggendorff",1,3,7,"Poggendorff_str-38.4_diff-0.3",-38.4,"-1",0.3,"arrowdown",0,940,478,"1.2",0.262364264467491,0.547722557505166,0.6694,-3.67376581630389,-6.19677335393187,-3.373730661207
"5c8fcb13dd3b360015b4dff6_dvbq9",30,"Male","Master","Portugal","Caucasian","05/08/2022","10:22:53",35.4983,0.168583333333333,"2195x1084",2.37938,61.28,"chrome","103.0.0","Desktop","Windows 10","Poggendorff",1,3,8,"Poggendorff_str12.8_diff0.0354",12.8,"1",0.03538,"arrowdown",1,652,1188,"1.2",0.0347685090928065,0.188095720312824,0.3283,2.62466859216316,3.57770876399966,2.33921419057029
"5c8fcb13dd3b360015b4dff6_dvbq9",30,"Male","Master","Portugal","Caucasian","05/08/2022","10:22:53",35.4983,0.168583333333333,"2195x1084",2.37938,61.28,"chrome","103.0.0","Desktop","Windows 10","Poggendorff",1,3,9,"Poggendorff_str38.4_diff-0.3",38.4,"-1",0.3,"arrowup",1,888,584,"1.2",0.262364264467491,0.547722557505166,0.6694,3.67376581630389,6.19677335393187,3.373730661207
"5c8fcb13dd3b360015b4dff6_dvbq9",30,"Male","Master","Portugal","Caucasian","05/08/2022","10:22:53",35.4983,0.168583333333333,"2195x1084",2.37938,61.28,"chrome","103.0.0","Desktop","Windows 10","Poggendorff",1,3,10,"Poggendorff_str12.8_diff-0.1716",12.8,"-1",0.17162,"arrowdown",0,801,1106,"1.2",0.158387406498324,0.414270443068293,0.5557,2.62466859216316,3.57770876399966,2.33921419057029
"5c8fcb13dd3b360015b4dff6_dvbq9",30,"Male","Master","Portugal","Caucasian","05/08/2022","10:22:53",35.4983,0.168583333333333,"2195x1084",2.37938,61.28,"chrome","103.0.0","Desktop","Windows 10","Poggendorff",1,3,11,"Poggendorff_str12.8_diff-0.0354",12.8,"-1",0.03538,"arrowdown",0,644,1188,"1.2",0.0347685090928065,0.188095720312824,0.3283,2.62466859216316,3.57770876399966,2.33921419057029
"5c8fcb13dd3b360015b4dff6_dvbq9",30,"Male","Master","Portugal","Caucasian","05/08/2022","10:22:53",35.4983,0.168583333333333,"2195x1084",2.37938,61.28,"chrome","103.0.0","Desktop","Windows 10","Poggendorff",1,3,12,"Poggendorff_str25.6_diff0.0864",25.6,"1",0.08636,"arrowdown",1,526,1219,"1.2",0.0828326582932122,0.293870719875254,0.442,3.28091121578765,5.05964425626941,2.94722519891231
"5c8fcb13dd3b360015b4dff6_dvbq9",30,"Male","Master","Portugal","Caucasian","05/08/2022","10:22:53",35.4983,0.168583333333333,"2195x1084",2.37938,61.28,"chrome","103.0.0","Desktop","Windows 10","Poggendorff",1,3,13,"Poggendorff_str38.4_diff0.3",38.4,"1",0.3,"arrowdown",1,571,1132,"1.2",0.262364264467491,0.547722557505166,0.6694,3.67376581630389,6.19677335393187,3.373730661207
"5c8fcb13dd3b360015b4dff6_dvbq9",30,"Male","Master","Portugal","Caucasian","05/08/2022","10:22:53",35.4983,0.168583333333333,"2195x1084",2.37938,61.28,"chrome","103.0.0","Desktop","Windows 10","Poggendorff",1,3,14,"Poggendorff_str12.8_diff0.3",12.8,"1",0.3,"arrowup",0,946,612,"1.2",0.262364264467491,0.547722557505166,0.6694,2.62466859216316,3.57770876399966,2.33921419057029
"5c8fcb13dd3b360015b4dff6_dvbq9",30,"Male","Master","Portugal","Caucasian","05/08/2022","10:22:53",35.4983,0.168583333333333,"2195x1084",2.37938,61.28,"chrome","103.0.0","Desktop","Windows 10","Poggendorff",1,3,15,"Poggendorff_str25.6_diff-0.0864",25.6,"-1",0.08636,"arrowup",1,977,700,"1.2",0.0828326582932122,0.293870719875254,0.442,3.28091121578765,5.05964425626941,2.94722519891231
"5c8fcb13dd3b360015b4dff6_dvbq9",30,"Male","Master","Portugal","Caucasian","05/08/2022","10:22:53",35.4983,0.168583333333333,"2195x1084",2.37938,61.28,"chrome","103.0.0","Desktop","Windows 10","Poggendorff",1,3,16,"Poggendorff_str12.8_diff0.0864",12.8,"1",0.08636,"arrowup",0,942,1235,"1.2",0.0828326582932122,0.293870719875254,0.442,2.62466859216316,3.57770876399966,2.33921419057029
"5c8fcb13dd3b360015b4dff6_dvbq9",30,"Male","Master","Portugal","Caucasian","05/08/2022","10:22:53",35.4983,0.168583333333333,"2195x1084",2.37938,61.28,"chrome","103.0.0","Desktop","Windows 10","Poggendorff",1,3,17,"Poggendorff_str-25.6_diff0.0864",-25.6,"1",0.08636,"arrowup",0,523,630,"1.2",0.0828326582932122,0.293870719875254,0.442,-3.28091121578765,-5.05964425626941,-2.94722519891231
"5c8fcb13dd3b360015b4dff6_dvbq9",30,"Male","Master","Portugal","Caucasian","05/08/2022","10:22:53",35.4983,0.168583333333333,"2195x1084",2.37938,61.28,"chrome","103.0.0","Desktop","Windows 10","Poggendorff",1,3,18,"Poggendorff_str-12.8_diff-0.0864",-12.8,"-1",0.08636,"arrowdown",0,824,966,"1.2",0.0828326582932122,0.293870719875254,0.442,-2.62466859216316,-3.57770876399966,-2.33921419057029
"5c8fcb13dd3b360015b4dff6_dvbq9",30,"Male","Master","Portugal","Caucasian","05/08/2022","10:22:53",35.4983,0.168583333333333,"2195x1084",2.37938,61.28,"chrome","103.0.0","Desktop","Windows 10","Poggendorff",1,3,19,"Poggendorff_str-38.4_diff0.0864",-38.4,"1",0.08636,"arrowup",0,897,575,"1.2",0.0828326582932122,0.293870719875254,0.442,-3.67376581630389,-6.19677335393187,-3.373730661207
"5c8fcb13dd3b360015b4dff6_dvbq9",30,"Male","Master","Portugal","Caucasian","05/08/2022","10:22:53",35.4983,0.168583333333333,"2195x1084",2.37938,61.28,"chrome","103.0.0","Desktop","Windows 10","Poggendorff",1,3,20,"Poggendorff_str-12.8_diff-0.3",-12.8,"-1",0.3,"arrowdown",0,528,930,"1.2",0.262364264467491,0.547722557505166,0.6694,-2.62466859216316,-3.57770876399966,-2.33921419057029
"5c8fcb13dd3b360015b4dff6_dvbq9",30,"Male","Master","Portugal","Caucasian","05/08/2022","10:22:53",35.4983,0.168583333333333,"2195x1084",2.37938,61.28,"chrome","103.0.0","Desktop","Windows 10","Poggendorff",1,3,21,"Poggendorff_str0.0_diff-0.0864",0,"-1",0.08636,"arrowdown",0,766,557,"1.2",0.0828326582932122,0.293870719875254,0.442,0,0,0
"5c8fcb13dd3b360015b4dff6_dvbq9",30,"Male","Master","Portugal","Caucasian","05/08/2022","10:22:53",35.4983,0.168583333333333,"2195x1084",2.37938,61.28,"chrome","103.0.0","Desktop","Windows 10","Poggendorff",1,3,22,"Poggendorff_str-12.8_diff0.3",-12.8,"1",0.3,"arrowup",0,728,612,"1.2",0.262364264467491,0.547722557505166,0.6694,-2.62466859216316,-3.57770876399966,-2.33921419057029
"5c8fcb13dd3b360015b4dff6_dvbq9",30,"Male","Master","Portugal","Caucasian","05/08/2022","10:22:53",35.4983,0.168583333333333,"2195x1084",2.37938,61.28,"chrome","103.0.0","Desktop","Windows 10","Poggendorff",1,3,23,"Poggendorff_str25.6_diff-0.0354",25.6,"-1",0.03538,"arrowup",1,502,508,"1.2",0.0347685090928065,0.188095720312824,0.3283,3.28091121578765,5.05964425626941,2.94722519891231
"5c8fcb13dd3b360015b4dff6_dvbq9",30,"Male","Master","Portugal","Caucasian","05/08/2022","10:22:53",35.4983,0.168583333333333,"2195x1084",2.37938,61.28,"chrome","103.0.0","Desktop","Windows 10","Poggendorff",1,3,24,"Poggendorff_str12.8_diff0.1716",12.8,"1",0.17162,"arrowup",0,953,639,"1.2",0.158387406498324,0.414270443068293,0.5557,2.62466859216316,3.57770876399966,2.33921419057029
"5c8fcb13dd3b360015b4dff6_dvbq9",30,"Male","Master","Portugal","Caucasian","05/08/2022","10:22:53",35.4983,0.168583333333333,"2195x1084",2.37938,61.28,"chrome","103.0.0","Desktop","Windows 10","Poggendorff",1,3,25,"Poggendorff_str-25.6_diff0.1716",-25.6,"1",0.17162,"arrowup",0,582,439,"1.2",0.158387406498324,0.414270443068293,0.5557,-3.28091121578765,-5.05964425626941,-2.94722519891231
"5c8fcb13dd3b360015b4dff6_dvbq9",30,"Male","Master","Portugal","Caucasian","05/08/2022","10:22:53",35.4983,0.168583333333333,"2195x1084",2.37938,61.28,"chrome","103.0.0","Desktop","Windows 10","Poggendorff",1,3,26,"Poggendorff_str-12.8_diff0.0354",-12.8,"1",0.03538,"arrowup",0,807,418,"1.2",0.0347685090928065,0.188095720312824,0.3283,-2.62466859216316,-3.57770876399966,-2.33921419057029
"5c8fcb13dd3b360015b4dff6_dvbq9",30,"Male","Master","Portugal","Caucasian","05/08/2022","10:22:53",35.4983,0.168583333333333,"2195x1084",2.37938,61.28,"chrome","103.0.0","Desktop","Windows 10","Poggendorff",1,3,27,"Poggendorff_str38.4_diff0.0354",38.4,"1",0.03538,"arrowdown",1,762,579,"1.2",0.0347685090928065,0.188095720312824,0.3283,3.67376581630389,6.19677335393187,3.373730661207
"5c8fcb13dd3b360015b4dff6_dvbq9",30,"Male","Master","Portugal","Caucasian","05/08/2022","10:22:53",35.4983,0.168583333333333,"2195x1084",2.37938,61.28,"chrome","103.0.0","Desktop","Windows 10","Poggendorff",1,3,28,"Poggendorff_str-38.4_diff-0.1716",-38.4,"-1",0.17162,"arrowdown",0,837,355,"1.2",0.158387406498324,0.414270443068293,0.5557,-3.67376581630389,-6.19677335393187,-3.373730661207
"5c8fcb13dd3b360015b4dff6_dvbq9",30,"Male","Master","Portugal","Caucasian","05/08/2022","10:22:53",35.4983,0.168583333333333,"2195x1084",2.37938,61.28,"chrome","103.0.0","Desktop","Windows 10","Poggendorff",1,3,29,"Poggendorff_str0.0_diff0.3",0,"1",0.3,"arrowup",0,549,424,"1.2",0.262364264467491,0.547722557505166,0.6694,0,0,0
"5c8fcb13dd3b360015b4dff6_dvbq9",30,"Male","Master","Portugal","Caucasian","05/08/2022","10:22:53",35.4983,0.168583333333333,"2195x1084",2.37938,61.28,"chrome","103.0.0","Desktop","Windows 10","Poggendorff",1,3,30,"Poggendorff_str-38.4_diff0.3",-38.4,"1",0.3,"arrowup",0,540,381,"1.2",0.262364264467491,0.547722557505166,0.6694,-3.67376581630389,-6.19677335393187,-3.373730661207
"5c8fcb13dd3b360015b4dff6_dvbq9",30,"Male","Master","Portugal","Caucasian","05/08/2022","10:22:53",35.4983,0.168583333333333,"2195x1084",2.37938,61.28,"chrome","103.0.0","Desktop","Windows 10","Poggendorff",1,3,31,"Poggendorff_str0.0_diff0.1716",0,"1",0.17162,"arrowup",0,551,403,"1.2",0.158387406498324,0.414270443068293,0.5557,0,0,0
"5c8fcb13dd3b360015b4dff6_dvbq9",30,"Male","Master","Portugal","Caucasian","05/08/2022","10:22:53",35.4983,0.168583333333333,"2195x1084",2.37938,61.28,"chrome","103.0.0","Desktop","Windows 10","Poggendorff",1,3,32,"Poggendorff_str-25.6_diff0.3",-25.6,"1",0.3,"arrowup",0,535,395,"1.2",0.262364264467491,0.547722557505166,0.6694,-3.28091121578765,-5.05964425626941,-2.94722519891231
"5c8fcb13dd3b360015b4dff6_dvbq9",30,"Male","Master","Portugal","Caucasian","05/08/2022","10:22:53",35.4983,0.168583333333333,"2195x1084",2.37938,61.28,"chrome","103.0.0","Desktop","Windows 10","Poggendorff",1,3,33,"Poggendorff_str-12.8_diff-0.1716",-12.8,"-1",0.17162,"arrowdown",0,703,554,"1.2",0.158387406498324,0.414270443068293,0.5557,-2.62466859216316,-3.57770876399966,-2.33921419057029
"5c8fcb13dd3b360015b4dff6_dvbq9",30,"Male","Master","Portugal","Caucasian","05/08/2022","10:22:53",35.4983,0.168583333333333,"2195x1084",2.37938,61.28,"chrome","103.0.0","Desktop","Windows 10","Poggendorff",1,3,34,"Poggendorff_str25.6_diff-0.3",25.6,"-1",0.3,"arrowdown",0,820,503,"1.2",0.262364264467491,0.547722557505166,0.6694,3.28091121578765,5.05964425626941,2.94722519891231
"5c8fcb13dd3b360015b4dff6_dvbq9",30,"Male","Master","Portugal","Caucasian","05/08/2022","10:22:53",35.4983,0.168583333333333,"2195x1084",2.37938,61.28,"chrome","103.0.0","Desktop","Windows 10","Poggendorff",1,3,35,"Poggendorff_str-25.6_diff0.0354",-25.6,"1",0.03538,"arrowup",0,539,409,"1.2",0.0347685090928065,0.188095720312824,0.3283,-3.28091121578765,-5.05964425626941,-2.94722519891231
"5c8fcb13dd3b360015b4dff6_dvbq9",30,"Male","Master","Portugal","Caucasian","05/08/2022","10:22:53",35.4983,0.168583333333333,"2195x1084",2.37938,61.28,"chrome","103.0.0","Desktop","Windows 10","Poggendorff",1,3,36,"Poggendorff_str25.6_diff0.0354",25.6,"1",0.03538,"arrowdown",1,683,506,"1.2",0.0347685090928065,0.188095720312824,0.3283,3.28091121578765,5.05964425626941,2.94722519891231
"5c8fcb13dd3b360015b4dff6_dvbq9",30,"Male","Master","Portugal","Caucasian","05/08/2022","10:22:53",35.4983,0.168583333333333,"2195x1084",2.37938,61.28,"chrome","103.0.0","Desktop","Windows 10","Poggendorff",1,3,37,"Poggendorff_str12.8_diff-0.0864",12.8,"-1",0.08636,"arrowdown",0,865,393,"1.2",0.0828326582932122,0.293870719875254,0.442,2.62466859216316,3.57770876399966,2.33921419057029
"5c8fcb13dd3b360015b4dff6_dvbq9",30,"Male","Master","Portugal","Caucasian","05/08/2022","10:22:53",35.4983,0.168583333333333,"2195x1084",2.37938,61.28,"chrome","103.0.0","Desktop","Windows 10","Poggendorff",1,3,38,"Poggendorff_str-12.8_diff0.0864",-12.8,"1",0.08636,"arrowup",0,898,482,"1.2",0.0828326582932122,0.293870719875254,0.442,-2.62466859216316,-3.57770876399966,-2.33921419057029
"5c8fcb13dd3b360015b4dff6_dvbq9",30,"Male","Master","Portugal","Caucasian","05/08/2022","10:22:53",35.4983,0.168583333333333,"2195x1084",2.37938,61.28,"chrome","103.0.0","Desktop","Windows 10","Poggendorff",1,3,39,"Poggendorff_str-38.4_diff-0.0864",-38.4,"-1",0.08636,"arrowdown",0,772,393,"1.2",0.0828326582932122,0.293870719875254,0.442,-3.67376581630389,-6.19677335393187,-3.373730661207
"5c8fcb13dd3b360015b4dff6_dvbq9",30,"Male","Master","Portugal","Caucasian","05/08/2022","10:22:53",35.4983,0.168583333333333,"2195x1084",2.37938,61.28,"chrome","103.0.0","Desktop","Windows 10","Poggendorff",1,3,40,"Poggendorff_str0.0_diff-0.3",0,"-1",0.3,"arrowdown",0,898,469,"1.2",0.262364264467491,0.547722557505166,0.6694,0,0,0
"5c8fcb13dd3b360015b4dff6_dvbq9",30,"Male","Master","Portugal","Caucasian","05/08/2022","10:22:53",35.4983,0.168583333333333,"2195x1084",2.37938,61.28,"chrome","103.0.0","Desktop","Windows 10","Poggendorff",1,3,41,"Poggendorff_str-38.4_diff0.0354",-38.4,"1",0.03538,"arrowup",0,838,361,"1.2",0.0347685090928065,0.188095720312824,0.3283,-3.67376581630389,-6.19677335393187,-3.373730661207
"5c8fcb13dd3b360015b4dff6_dvbq9",30,"Male","Master","Portugal","Caucasian","05/08/2022","10:22:53",35.4983,0.168583333333333,"2195x1084",2.37938,61.28,"chrome","103.0.0","Desktop","Windows 10","Poggendorff",1,3,42,"Poggendorff_str0.0_diff-0.1716",0,"-1",0.17162,"arrowdown",0,917,466,"1.2",0.158387406498324,0.414270443068293,0.5557,0,0,0
"5c8fcb13dd3b360015b4dff6_dvbq9",30,"Male","Master","Portugal","Caucasian","05/08/2022","10:22:53",35.4983,0.168583333333333,"2195x1084",2.37938,61.28,"chrome","103.0.0","Desktop","Windows 10","Poggendorff",1,3,43,"Poggendorff_str38.4_diff0.1716",38.4,"1",0.17162,"arrowdown",1,771,697,"1.2",0.158387406498324,0.414270443068293,0.5557,3.67376581630389,6.19677335393187,3.373730661207
"5c8fcb13dd3b360015b4dff6_dvbq9",30,"Male","Master","Portugal","Caucasian","05/08/2022","10:22:53",35.4983,0.168583333333333,"2195x1084",2.37938,61.28,"chrome","103.0.0","Desktop","Windows 10","Poggendorff",1,3,44,"Poggendorff_str25.6_diff0.3",25.6,"1",0.3,"arrowup",0,693,650,"1.2",0.262364264467491,0.547722557505166,0.6694,3.28091121578765,5.05964425626941,2.94722519891231
"5c8fcb13dd3b360015b4dff6_dvbq9",30,"Male","Master","Portugal","Caucasian","05/08/2022","10:22:53",35.4983,0.168583333333333,"2195x1084",2.37938,61.28,"chrome","103.0.0","Desktop","Windows 10","Poggendorff",1,3,45,"Poggendorff_str12.8_diff-0.3",12.8,"-1",0.3,"arrowdown",0,699,579,"1.2",0.262364264467491,0.547722557505166,0.6694,2.62466859216316,3.57770876399966,2.33921419057029
"5c8fcb13dd3b360015b4dff6_dvbq9",30,"Male","Master","Portugal","Caucasian","05/08/2022","10:22:53",35.4983,0.168583333333333,"2195x1084",2.37938,61.28,"chrome","103.0.0","Desktop","Windows 10","Poggendorff",1,3,46,"Poggendorff_str0.0_diff0.0864",0,"1",0.08636,"arrowup",0,583,480,"1.2",0.0828326582932122,0.293870719875254,0.442,0,0,0
"5c8fcb13dd3b360015b4dff6_dvbq9",30,"Male","Master","Portugal","Caucasian","05/08/2022","10:22:53",35.4983,0.168583333333333,"2195x1084",2.37938,61.28,"chrome","103.0.0","Desktop","Windows 10","Poggendorff",1,3,47,"Poggendorff_str25.6_diff0.1716",25.6,"1",0.17162,"arrowup",0,510,599,"1.2",0.158387406498324,0.414270443068293,0.5557,3.28091121578765,5.05964425626941,2.94722519891231
"5c8fcb13dd3b360015b4dff6_dvbq9",30,"Male","Master","Portugal","Caucasian","05/08/2022","10:22:53",35.4983,0.168583333333333,"2195x1084",2.37938,61.28,"chrome","103.0.0","Desktop","Windows 10","Poggendorff",1,3,48,"Poggendorff_str38.4_diff0.0864",38.4,"1",0.08636,"arrowdown",1,588,797,"1.2",0.0828326582932122,0.293870719875254,0.442,3.67376581630389,6.19677335393187,3.373730661207
"5c8fcb13dd3b360015b4dff6_dvbq9",30,"Male","Master","Portugal","Caucasian","05/08/2022","10:22:53",35.4983,0.168583333333333,"2195x1084",2.37938,61.28,"chrome","103.0.0","Desktop","Windows 10","Poggendorff",1,3,49,"Poggendorff_str-25.6_diff-0.3",-25.6,"-1",0.3,"arrowdown",0,973,865,"1.2",0.262364264467491,0.547722557505166,0.6694,-3.28091121578765,-5.05964425626941,-2.94722519891231
"5c8fcb13dd3b360015b4dff6_dvbq9",30,"Male","Master","Portugal","Caucasian","05/08/2022","10:22:53",35.4983,0.168583333333333,"2195x1084",2.37938,61.28,"chrome","103.0.0","Desktop","Windows 10","Poggendorff",1,3,50,"Poggendorff_str38.4_diff-0.0354",38.4,"-1",0.03538,"arrowup",1,735,650,"1.2",0.0347685090928065,0.188095720312824,0.3283,3.67376581630389,6.19677335393187,3.373730661207
"5c8fcb13dd3b360015b4dff6_dvbq9",30,"Male","Master","Portugal","Caucasian","05/08/2022","10:22:53",35.4983,0.168583333333333,"2195x1084",2.37938,61.28,"chrome","103.0.0","Desktop","Windows 10","Poggendorff",1,3,51,"Poggendorff_str-12.8_diff0.1716",-12.8,"1",0.17162,"arrowup",0,991,518,"1.2",0.158387406498324,0.414270443068293,0.5557,-2.62466859216316,-3.57770876399966,-2.33921419057029
"5c8fcb13dd3b360015b4dff6_dvbq9",30,"Male","Master","Portugal","Caucasian","05/08/2022","10:22:53",35.4983,0.168583333333333,"2195x1084",2.37938,61.28,"chrome","103.0.0","Desktop","Windows 10","Poggendorff",1,3,52,"Poggendorff_str0.0_diff-0.0354",0,"-1",0.03538,"arrowdown",0,586,714,"1.2",0.0347685090928065,0.188095720312824,0.3283,0,0,0
"5c8fcb13dd3b360015b4dff6_dvbq9",30,"Male","Master","Portugal","Caucasian","05/08/2022","10:22:53",35.4983,0.168583333333333,"2195x1084",2.37938,61.28,"chrome","103.0.0","Desktop","Windows 10","Poggendorff",1,3,53,"Poggendorff_str-12.8_diff-0.0354",-12.8,"-1",0.03538,"arrowdown",0,537,512,"1.2",0.0347685090928065,0.188095720312824,0.3283,-2.62466859216316,-3.57770876399966,-2.33921419057029
"5c8fcb13dd3b360015b4dff6_dvbq9",30,"Male","Master","Portugal","Caucasian","05/08/2022","10:22:53",35.4983,0.168583333333333,"2195x1084",2.37938,61.28,"chrome","103.0.0","Desktop","Windows 10","Poggendorff",1,3,54,"Poggendorff_str25.6_diff-0.1716",25.6,"-1",0.17162,"arrowup",1,702,1360,"1.2",0.158387406498324,0.414270443068293,0.5557,3.28091121578765,5.05964425626941,2.94722519891231
"5c8fcb13dd3b360015b4dff6_dvbq9",30,"Male","Master","Portugal","Caucasian","05/08/2022","10:22:53",35.4983,0.168583333333333,"2195x1084",2.37938,61.28,"chrome","103.0.0","Desktop","Windows 10","Poggendorff",1,3,55,"Poggendorff_str-25.6_diff-0.0354",-25.6,"-1",0.03538,"arrowdown",0,965,670,"1.2",0.0347685090928065,0.188095720312824,0.3283,-3.28091121578765,-5.05964425626941,-2.94722519891231
"5c8fcb13dd3b360015b4dff6_dvbq9",30,"Male","Master","Portugal","Caucasian","05/08/2022","10:22:53",35.4983,0.168583333333333,"2195x1084",2.37938,61.28,"chrome","103.0.0","Desktop","Windows 10","Poggendorff",1,3,56,"Poggendorff_str38.4_diff-0.0864",38.4,"-1",0.08636,"arrowup",1,862,661,"1.2",0.0828326582932122,0.293870719875254,0.442,3.67376581630389,6.19677335393187,3.373730661207
"5c8fcb13dd3b360015b4dff6_dvbq9",30,"Male","Master","Portugal","Caucasian","05/08/2022","10:22:53",35.4983,0.168583333333333,"2195x1084",2.37938,61.28,"chrome","103.0.0","Desktop","Windows 10","Ponzo",1,4,1,"Ponzo_str-21.6_diff0.2735",-21.6,"1",0.27349,"arrowup",0,610,608,"1.2",0.241761163031201,0.52296271377604,0.6491,-3.11794990627824,-4.6475800154489,-2.78495330016767
"5c8fcb13dd3b360015b4dff6_dvbq9",30,"Male","Master","Portugal","Caucasian","05/08/2022","10:22:53",35.4983,0.168583333333333,"2195x1084",2.37938,61.28,"chrome","103.0.0","Desktop","Windows 10","Ponzo",1,4,2,"Ponzo_str7.2_diff-0.0656",7.2,"-1",0.06565,"arrowup",1,907,1493,"1.2",0.0635849416251106,0.256222559506379,0.4034,2.10413415427021,2.68328157299975,1.93097876921126
"5c8fcb13dd3b360015b4dff6_dvbq9",30,"Male","Master","Portugal","Caucasian","05/08/2022","10:22:53",35.4983,0.168583333333333,"2195x1084",2.37938,61.28,"chrome","103.0.0","Desktop","Windows 10","Ponzo",1,4,3,"Ponzo_str14.4_diff-0.1458",14.4,"-1",0.14575,"arrowup",1,998,763,"1.2",0.136059444407096,0.381772183376421,0.5263,2.73436750941958,3.79473319220206,2.43288079822936
"5c8fcb13dd3b360015b4dff6_dvbq9",30,"Male","Master","Portugal","Caucasian","05/08/2022","10:22:53",35.4983,0.168583333333333,"2195x1084",2.37938,61.28,"chrome","103.0.0","Desktop","Windows 10","Ponzo",1,4,4,"Ponzo_str-14.4_diff-0.1458",-14.4,"-1",0.14575,"arrowdown",0,734,709,"1.2",0.136059444407096,0.381772183376421,0.5263,-2.73436750941958,-3.79473319220206,-2.43288079822936
"5c8fcb13dd3b360015b4dff6_dvbq9",30,"Male","Master","Portugal","Caucasian","05/08/2022","10:22:53",35.4983,0.168583333333333,"2195x1084",2.37938,61.28,"chrome","103.0.0","Desktop","Windows 10","Ponzo",1,4,5,"Ponzo_str0.0_diff0.2735",0,"1",0.27349,"arrowup",0,568,509,"1.2",0.241761163031201,0.52296271377604,0.6491,0,0,0
"5c8fcb13dd3b360015b4dff6_dvbq9",30,"Male","Master","Portugal","Caucasian","05/08/2022","10:22:53",35.4983,0.168583333333333,"2195x1084",2.37938,61.28,"chrome","103.0.0","Desktop","Windows 10","Ponzo",1,4,6,"Ponzo_str-21.6_diff-0.0656",-21.6,"-1",0.06565,"arrowdown",0,855,540,"1.2",0.0635849416251106,0.256222559506379,0.4034,-3.11794990627824,-4.6475800154489,-2.78495330016767
"5c8fcb13dd3b360015b4dff6_dvbq9",30,"Male","Master","Portugal","Caucasian","05/08/2022","10:22:53",35.4983,0.168583333333333,"2195x1084",2.37938,61.28,"chrome","103.0.0","Desktop","Windows 10","Ponzo",1,4,7,"Ponzo_str-14.4_diff0.1458",-14.4,"1",0.14575,"arrowup",0,971,606,"1.2",0.136059444407096,0.381772183376421,0.5263,-2.73436750941958,-3.79473319220206,-2.43288079822936
"5c8fcb13dd3b360015b4dff6_dvbq9",30,"Male","Master","Portugal","Caucasian","05/08/2022","10:22:53",35.4983,0.168583333333333,"2195x1084",2.37938,61.28,"chrome","103.0.0","Desktop","Windows 10","Ponzo",1,4,8,"Ponzo_str21.6_diff-0.2735",21.6,"-1",0.27349,"arrowdown",0,513,633,"1.2",0.241761163031201,0.52296271377604,0.6491,3.11794990627824,4.6475800154489,2.78495330016767
"5c8fcb13dd3b360015b4dff6_dvbq9",30,"Male","Master","Portugal","Caucasian","05/08/2022","10:22:53",35.4983,0.168583333333333,"2195x1084",2.37938,61.28,"chrome","103.0.0","Desktop","Windows 10","Ponzo",1,4,9,"Ponzo_str-21.6_diff0.46",-21.6,"1",0.46,"arrowup",0,524,563,"1.2",0.378436435720245,0.678232998312527,0.7719,-3.11794990627824,-4.6475800154489,-2.78495330016767
"5c8fcb13dd3b360015b4dff6_dvbq9",30,"Male","Master","Portugal","Caucasian","05/08/2022","10:22:53",35.4983,0.168583333333333,"2195x1084",2.37938,61.28,"chrome","103.0.0","Desktop","Windows 10","Ponzo",1,4,10,"Ponzo_str21.6_diff-0.46",21.6,"-1",0.46,"arrowdown",0,605,607,"1.2",0.378436435720245,0.678232998312527,0.7719,3.11794990627824,4.6475800154489,2.78495330016767
"5c8fcb13dd3b360015b4dff6_dvbq9",30,"Male","Master","Portugal","Caucasian","05/08/2022","10:22:53",35.4983,0.168583333333333,"2195x1084",2.37938,61.28,"chrome","103.0.0","Desktop","Windows 10","Ponzo",1,4,11,"Ponzo_str-7.2_diff-0.2735",-7.2,"-1",0.27349,"arrowdown",0,584,700,"1.2",0.241761163031201,0.52296271377604,0.6491,-2.10413415427021,-2.68328157299975,-1.93097876921126
"5c8fcb13dd3b360015b4dff6_dvbq9",30,"Male","Master","Portugal","Caucasian","05/08/2022","10:22:53",35.4983,0.168583333333333,"2195x1084",2.37938,61.28,"chrome","103.0.0","Desktop","Windows 10","Ponzo",1,4,12,"Ponzo_str21.6_diff-0.0656",21.6,"-1",0.06565,"arrowup",1,627,1219,"1.2",0.0635849416251106,0.256222559506379,0.4034,3.11794990627824,4.6475800154489,2.78495330016767
"5c8fcb13dd3b360015b4dff6_dvbq9",30,"Male","Master","Portugal","Caucasian","05/08/2022","10:22:53",35.4983,0.168583333333333,"2195x1084",2.37938,61.28,"chrome","103.0.0","Desktop","Windows 10","Ponzo",1,4,13,"Ponzo_str-7.2_diff-0.0656",-7.2,"-1",0.06565,"arrowdown",0,778,911,"1.2",0.0635849416251106,0.256222559506379,0.4034,-2.10413415427021,-2.68328157299975,-1.93097876921126
"5c8fcb13dd3b360015b4dff6_dvbq9",30,"Male","Master","Portugal","Caucasian","05/08/2022","10:22:53",35.4983,0.168583333333333,"2195x1084",2.37938,61.28,"chrome","103.0.0","Desktop","Windows 10","Ponzo",1,4,14,"Ponzo_str0.0_diff-0.0656",0,"-1",0.06565,"arrowdown",0,610,1159,"1.2",0.0635849416251106,0.256222559506379,0.4034,0,0,0
"5c8fcb13dd3b360015b4dff6_dvbq9",30,"Male","Master","Portugal","Caucasian","05/08/2022","10:22:53",35.4983,0.168583333333333,"2195x1084",2.37938,61.28,"chrome","103.0.0","Desktop","Windows 10","Ponzo",1,4,15,"Ponzo_str14.4_diff0.46",14.4,"1",0.46,"arrowup",0,532,635,"1.2",0.378436435720245,0.678232998312527,0.7719,2.73436750941958,3.79473319220206,2.43288079822936
"5c8fcb13dd3b360015b4dff6_dvbq9",30,"Male","Master","Portugal","Caucasian","05/08/2022","10:22:53",35.4983,0.168583333333333,"2195x1084",2.37938,61.28,"chrome","103.0.0","Desktop","Windows 10","Ponzo",1,4,16,"Ponzo_str-14.4_diff-0.0656",-14.4,"-1",0.06565,"arrowdown",0,573,537,"1.2",0.0635849416251106,0.256222559506379,0.4034,-2.73436750941958,-3.79473319220206,-2.43288079822936
"5c8fcb13dd3b360015b4dff6_dvbq9",30,"Male","Master","Portugal","Caucasian","05/08/2022","10:22:53",35.4983,0.168583333333333,"2195x1084",2.37938,61.28,"chrome","103.0.0","Desktop","Windows 10","Ponzo",1,4,17,"Ponzo_str-14.4_diff-0.2735",-14.4,"-1",0.27349,"arrowdown",0,789,409,"1.2",0.241761163031201,0.52296271377604,0.6491,-2.73436750941958,-3.79473319220206,-2.43288079822936
"5c8fcb13dd3b360015b4dff6_dvbq9",30,"Male","Master","Portugal","Caucasian","05/08/2022","10:22:53",35.4983,0.168583333333333,"2195x1084",2.37938,61.28,"chrome","103.0.0","Desktop","Windows 10","Ponzo",1,4,18,"Ponzo_str7.2_diff0.2735",7.2,"1",0.27349,"arrowup",0,967,544,"1.2",0.241761163031201,0.52296271377604,0.6491,2.10413415427021,2.68328157299975,1.93097876921126
"5c8fcb13dd3b360015b4dff6_dvbq9",30,"Male","Master","Portugal","Caucasian","05/08/2022","10:22:53",35.4983,0.168583333333333,"2195x1084",2.37938,61.28,"chrome","103.0.0","Desktop","Windows 10","Ponzo",1,4,19,"Ponzo_str21.6_diff0.2735",21.6,"1",0.27349,"arrowup",0,539,676,"1.2",0.241761163031201,0.52296271377604,0.6491,3.11794990627824,4.6475800154489,2.78495330016767
"5c8fcb13dd3b360015b4dff6_dvbq9",30,"Male","Master","Portugal","Caucasian","05/08/2022","10:22:53",35.4983,0.168583333333333,"2195x1084",2.37938,61.28,"chrome","103.0.0","Desktop","Windows 10","Ponzo",1,4,20,"Ponzo_str-7.2_diff0.2735",-7.2,"1",0.27349,"arrowup",0,662,501,"1.2",0.241761163031201,0.52296271377604,0.6491,-2.10413415427021,-2.68328157299975,-1.93097876921126
"5c8fcb13dd3b360015b4dff6_dvbq9",30,"Male","Master","Portugal","Caucasian","05/08/2022","10:22:53",35.4983,0.168583333333333,"2195x1084",2.37938,61.28,"chrome","103.0.0","Desktop","Windows 10","Ponzo",1,4,21,"Ponzo_str0.0_diff-0.46",0,"-1",0.46,"arrowdown",0,947,490,"1.2",0.378436435720245,0.678232998312527,0.7719,0,0,0
"5c8fcb13dd3b360015b4dff6_dvbq9",30,"Male","Master","Portugal","Caucasian","05/08/2022","10:22:53",35.4983,0.168583333333333,"2195x1084",2.37938,61.28,"chrome","103.0.0","Desktop","Windows 10","Ponzo",1,4,22,"Ponzo_str7.2_diff-0.1458",7.2,"-1",0.14575,"arrowdown",0,797,965,"1.2",0.136059444407096,0.381772183376421,0.5263,2.10413415427021,2.68328157299975,1.93097876921126
"5c8fcb13dd3b360015b4dff6_dvbq9",30,"Male","Master","Portugal","Caucasian","05/08/2022","10:22:53",35.4983,0.168583333333333,"2195x1084",2.37938,61.28,"chrome","103.0.0","Desktop","Windows 10","Ponzo",1,4,23,"Ponzo_str-21.6_diff0.1458",-21.6,"1",0.14575,"arrowup",0,814,496,"1.2",0.136059444407096,0.381772183376421,0.5263,-3.11794990627824,-4.6475800154489,-2.78495330016767
"5c8fcb13dd3b360015b4dff6_dvbq9",30,"Male","Master","Portugal","Caucasian","05/08/2022","10:22:53",35.4983,0.168583333333333,"2195x1084",2.37938,61.28,"chrome","103.0.0","Desktop","Windows 10","Ponzo",1,4,24,"Ponzo_str21.6_diff-0.1458",21.6,"-1",0.14575,"arrowup",1,568,637,"1.2",0.136059444407096,0.381772183376421,0.5263,3.11794990627824,4.6475800154489,2.78495330016767
"5c8fcb13dd3b360015b4dff6_dvbq9",30,"Male","Master","Portugal","Caucasian","05/08/2022","10:22:53",35.4983,0.168583333333333,"2195x1084",2.37938,61.28,"chrome","103.0.0","Desktop","Windows 10","Ponzo",1,4,25,"Ponzo_str-21.6_diff-0.2735",-21.6,"-1",0.27349,"arrowdown",0,979,505,"1.2",0.241761163031201,0.52296271377604,0.6491,-3.11794990627824,-4.6475800154489,-2.78495330016767
"5c8fcb13dd3b360015b4dff6_dvbq9",30,"Male","Master","Portugal","Caucasian","05/08/2022","10:22:53",35.4983,0.168583333333333,"2195x1084",2.37938,61.28,"chrome","103.0.0","Desktop","Windows 10","Ponzo",1,4,26,"Ponzo_str-7.2_diff-0.1458",-7.2,"-1",0.14575,"arrowdown",0,921,531,"1.2",0.136059444407096,0.381772183376421,0.5263,-2.10413415427021,-2.68328157299975,-1.93097876921126
"5c8fcb13dd3b360015b4dff6_dvbq9",30,"Male","Master","Portugal","Caucasian","05/08/2022","10:22:53",35.4983,0.168583333333333,"2195x1084",2.37938,61.28,"chrome","103.0.0","Desktop","Windows 10","Ponzo",1,4,27,"Ponzo_str14.4_diff-0.0656",14.4,"-1",0.06565,"arrowup",1,587,1345,"1.2",0.0635849416251106,0.256222559506379,0.4034,2.73436750941958,3.79473319220206,2.43288079822936
"5c8fcb13dd3b360015b4dff6_dvbq9",30,"Male","Master","Portugal","Caucasian","05/08/2022","10:22:53",35.4983,0.168583333333333,"2195x1084",2.37938,61.28,"chrome","103.0.0","Desktop","Windows 10","Ponzo",1,4,28,"Ponzo_str-21.6_diff-0.46",-21.6,"-1",0.46,"arrowdown",0,574,553,"1.2",0.378436435720245,0.678232998312527,0.7719,-3.11794990627824,-4.6475800154489,-2.78495330016767
"5c8fcb13dd3b360015b4dff6_dvbq9",30,"Male","Master","Portugal","Caucasian","05/08/2022","10:22:53",35.4983,0.168583333333333,"2195x1084",2.37938,61.28,"chrome","103.0.0","Desktop","Windows 10","Ponzo",1,4,29,"Ponzo_str0.0_diff-0.2735",0,"-1",0.27349,"arrowdown",0,834,433,"1.2",0.241761163031201,0.52296271377604,0.6491,0,0,0
"5c8fcb13dd3b360015b4dff6_dvbq9",30,"Male","Master","Portugal","Caucasian","05/08/2022","10:22:53",35.4983,0.168583333333333,"2195x1084",2.37938,61.28,"chrome","103.0.0","Desktop","Windows 10","Ponzo",1,4,30,"Ponzo_str14.4_diff0.1458",14.4,"1",0.14575,"arrowup",0,604,638,"1.2",0.136059444407096,0.381772183376421,0.5263,2.73436750941958,3.79473319220206,2.43288079822936
"5c8fcb13dd3b360015b4dff6_dvbq9",30,"Male","Master","Portugal","Caucasian","05/08/2022","10:22:53",35.4983,0.168583333333333,"2195x1084",2.37938,61.28,"chrome","103.0.0","Desktop","Windows 10","Ponzo",1,4,31,"Ponzo_str-14.4_diff0.46",-14.4,"1",0.46,"arrowup",0,953,449,"1.2",0.378436435720245,0.678232998312527,0.7719,-2.73436750941958,-3.79473319220206,-2.43288079822936
"5c8fcb13dd3b360015b4dff6_dvbq9",30,"Male","Master","Portugal","Caucasian","05/08/2022","10:22:53",35.4983,0.168583333333333,"2195x1084",2.37938,61.28,"chrome","103.0.0","Desktop","Windows 10","Ponzo",1,4,32,"Ponzo_str-7.2_diff0.46",-7.2,"1",0.46,"arrowup",0,523,444,"1.2",0.378436435720245,0.678232998312527,0.7719,-2.10413415427021,-2.68328157299975,-1.93097876921126
"5c8fcb13dd3b360015b4dff6_dvbq9",30,"Male","Master","Portugal","Caucasian","05/08/2022","10:22:53",35.4983,0.168583333333333,"2195x1084",2.37938,61.28,"chrome","103.0.0","Desktop","Windows 10","Ponzo",1,4,33,"Ponzo_str-21.6_diff-0.1458",-21.6,"-1",0.14575,"arrowdown",0,720,418,"1.2",0.136059444407096,0.381772183376421,0.5263,-3.11794990627824,-4.6475800154489,-2.78495330016767
"5c8fcb13dd3b360015b4dff6_dvbq9",30,"Male","Master","Portugal","Caucasian","05/08/2022","10:22:53",35.4983,0.168583333333333,"2195x1084",2.37938,61.28,"chrome","103.0.0","Desktop","Windows 10","Ponzo",1,4,34,"Ponzo_str7.2_diff-0.2735",7.2,"-1",0.27349,"arrowdown",0,534,542,"1.2",0.241761163031201,0.52296271377604,0.6491,2.10413415427021,2.68328157299975,1.93097876921126
"5c8fcb13dd3b360015b4dff6_dvbq9",30,"Male","Master","Portugal","Caucasian","05/08/2022","10:22:53",35.4983,0.168583333333333,"2195x1084",2.37938,61.28,"chrome","103.0.0","Desktop","Windows 10","Ponzo",1,4,35,"Ponzo_str-21.6_diff0.0656",-21.6,"1",0.06565,"arrowup",0,881,460,"1.2",0.0635849416251106,0.256222559506379,0.4034,-3.11794990627824,-4.6475800154489,-2.78495330016767
"5c8fcb13dd3b360015b4dff6_dvbq9",30,"Male","Master","Portugal","Caucasian","05/08/2022","10:22:53",35.4983,0.168583333333333,"2195x1084",2.37938,61.28,"chrome","103.0.0","Desktop","Windows 10","Ponzo",1,4,36,"Ponzo_str-14.4_diff0.2735",-14.4,"1",0.27349,"arrowup",0,790,436,"1.2",0.241761163031201,0.52296271377604,0.6491,-2.73436750941958,-3.79473319220206,-2.43288079822936
"5c8fcb13dd3b360015b4dff6_dvbq9",30,"Male","Master","Portugal","Caucasian","05/08/2022","10:22:53",35.4983,0.168583333333333,"2195x1084",2.37938,61.28,"chrome","103.0.0","Desktop","Windows 10","Ponzo",1,4,37,"Ponzo_str21.6_diff0.1458",21.6,"1",0.14575,"arrowdown",1,748,483,"1.2",0.136059444407096,0.381772183376421,0.5263,3.11794990627824,4.6475800154489,2.78495330016767
"5c8fcb13dd3b360015b4dff6_dvbq9",30,"Male","Master","Portugal","Caucasian","05/08/2022","10:22:53",35.4983,0.168583333333333,"2195x1084",2.37938,61.28,"chrome","103.0.0","Desktop","Windows 10","Ponzo",1,4,38,"Ponzo_str-7.2_diff0.0656",-7.2,"1",0.06565,"arrowup",0,972,703,"1.2",0.0635849416251106,0.256222559506379,0.4034,-2.10413415427021,-2.68328157299975,-1.93097876921126
"5c8fcb13dd3b360015b4dff6_dvbq9",30,"Male","Master","Portugal","Caucasian","05/08/2022","10:22:53",35.4983,0.168583333333333,"2195x1084",2.37938,61.28,"chrome","103.0.0","Desktop","Windows 10","Ponzo",1,4,39,"Ponzo_str14.4_diff-0.2735",14.4,"-1",0.27349,"arrowdown",0,833,553,"1.2",0.241761163031201,0.52296271377604,0.6491,2.73436750941958,3.79473319220206,2.43288079822936
"5c8fcb13dd3b360015b4dff6_dvbq9",30,"Male","Master","Portugal","Caucasian","05/08/2022","10:22:53",35.4983,0.168583333333333,"2195x1084",2.37938,61.28,"chrome","103.0.0","Desktop","Windows 10","Ponzo",1,4,40,"Ponzo_str21.6_diff0.0656",21.6,"1",0.06565,"arrowdown",1,586,1063,"1.2",0.0635849416251106,0.256222559506379,0.4034,3.11794990627824,4.6475800154489,2.78495330016767
"5c8fcb13dd3b360015b4dff6_dvbq9",30,"Male","Master","Portugal","Caucasian","05/08/2022","10:22:53",35.4983,0.168583333333333,"2195x1084",2.37938,61.28,"chrome","103.0.0","Desktop","Windows 10","Ponzo",1,4,41,"Ponzo_str14.4_diff-0.46",14.4,"-1",0.46,"arrowdown",0,930,433,"1.2",0.378436435720245,0.678232998312527,0.7719,2.73436750941958,3.79473319220206,2.43288079822936
"5c8fcb13dd3b360015b4dff6_dvbq9",30,"Male","Master","Portugal","Caucasian","05/08/2022","10:22:53",35.4983,0.168583333333333,"2195x1084",2.37938,61.28,"chrome","103.0.0","Desktop","Windows 10","Ponzo",1,4,42,"Ponzo_str14.4_diff0.2735",14.4,"1",0.27349,"arrowup",0,895,513,"1.2",0.241761163031201,0.52296271377604,0.6491,2.73436750941958,3.79473319220206,2.43288079822936
"5c8fcb13dd3b360015b4dff6_dvbq9",30,"Male","Master","Portugal","Caucasian","05/08/2022","10:22:53",35.4983,0.168583333333333,"2195x1084",2.37938,61.28,"chrome","103.0.0","Desktop","Windows 10","Ponzo",1,4,43,"Ponzo_str21.6_diff0.46",21.6,"1",0.46,"arrowup",0,808,505,"1.2",0.378436435720245,0.678232998312527,0.7719,3.11794990627824,4.6475800154489,2.78495330016767
"5c8fcb13dd3b360015b4dff6_dvbq9",30,"Male","Master","Portugal","Caucasian","05/08/2022","10:22:53",35.4983,0.168583333333333,"2195x1084",2.37938,61.28,"chrome","103.0.0","Desktop","Windows 10","Ponzo",1,4,44,"Ponzo_str7.2_diff0.46",7.2,"1",0.46,"arrowup",0,595,427,"1.2",0.378436435720245,0.678232998312527,0.7719,2.10413415427021,2.68328157299975,1.93097876921126
"5c8fcb13dd3b360015b4dff6_dvbq9",30,"Male","Master","Portugal","Caucasian","05/08/2022","10:22:53",35.4983,0.168583333333333,"2195x1084",2.37938,61.28,"chrome","103.0.0","Desktop","Windows 10","Ponzo",1,4,45,"Ponzo_str7.2_diff0.0656",7.2,"1",0.06565,"arrowdown",1,825,581,"1.2",0.0635849416251106,0.256222559506379,0.4034,2.10413415427021,2.68328157299975,1.93097876921126
"5c8fcb13dd3b360015b4dff6_dvbq9",30,"Male","Master","Portugal","Caucasian","05/08/2022","10:22:53",35.4983,0.168583333333333,"2195x1084",2.37938,61.28,"chrome","103.0.0","Desktop","Windows 10","Ponzo",1,4,46,"Ponzo_str-14.4_diff-0.46",-14.4,"-1",0.46,"arrowdown",0,581,532,"1.2",0.378436435720245,0.678232998312527,0.7719,-2.73436750941958,-3.79473319220206,-2.43288079822936
"5c8fcb13dd3b360015b4dff6_dvbq9",30,"Male","Master","Portugal","Caucasian","05/08/2022","10:22:53",35.4983,0.168583333333333,"2195x1084",2.37938,61.28,"chrome","103.0.0","Desktop","Windows 10","Ponzo",1,4,47,"Ponzo_str0.0_diff0.46",0,"1",0.46,"arrowup",0,646,455,"1.2",0.378436435720245,0.678232998312527,0.7719,0,0,0
"5c8fcb13dd3b360015b4dff6_dvbq9",30,"Male","Master","Portugal","Caucasian","05/08/2022","10:22:53",35.4983,0.168583333333333,"2195x1084",2.37938,61.28,"chrome","103.0.0","Desktop","Windows 10","Ponzo",1,4,48,"Ponzo_str-14.4_diff0.0656",-14.4,"1",0.06565,"arrowup",0,932,527,"1.2",0.0635849416251106,0.256222559506379,0.4034,-2.73436750941958,-3.79473319220206,-2.43288079822936
"5c8fcb13dd3b360015b4dff6_dvbq9",30,"Male","Master","Portugal","Caucasian","05/08/2022","10:22:53",35.4983,0.168583333333333,"2195x1084",2.37938,61.28,"chrome","103.0.0","Desktop","Windows 10","Ponzo",1,4,49,"Ponzo_str-7.2_diff0.1458",-7.2,"1",0.14575,"arrowup",0,947,574,"1.2",0.136059444407096,0.381772183376421,0.5263,-2.10413415427021,-2.68328157299975,-1.93097876921126
"5c8fcb13dd3b360015b4dff6_dvbq9",30,"Male","Master","Portugal","Caucasian","05/08/2022","10:22:53",35.4983,0.168583333333333,"2195x1084",2.37938,61.28,"chrome","103.0.0","Desktop","Windows 10","Ponzo",1,4,50,"Ponzo_str7.2_diff-0.46",7.2,"-1",0.46,"arrowdown",0,606,562,"1.2",0.378436435720245,0.678232998312527,0.7719,2.10413415427021,2.68328157299975,1.93097876921126
"5c8fcb13dd3b360015b4dff6_dvbq9",30,"Male","Master","Portugal","Caucasian","05/08/2022","10:22:53",35.4983,0.168583333333333,"2195x1084",2.37938,61.28,"chrome","103.0.0","Desktop","Windows 10","Ponzo",1,4,51,"Ponzo_str14.4_diff0.0656",14.4,"1",0.06565,"arrowdown",1,625,564,"1.2",0.0635849416251106,0.256222559506379,0.4034,2.73436750941958,3.79473319220206,2.43288079822936
"5c8fcb13dd3b360015b4dff6_dvbq9",30,"Male","Master","Portugal","Caucasian","05/08/2022","10:22:53",35.4983,0.168583333333333,"2195x1084",2.37938,61.28,"chrome","103.0.0","Desktop","Windows 10","Ponzo",1,4,52,"Ponzo_str0.0_diff-0.1458",0,"-1",0.14575,"arrowdown",0,665,507,"1.2",0.136059444407096,0.381772183376421,0.5263,0,0,0
"5c8fcb13dd3b360015b4dff6_dvbq9",30,"Male","Master","Portugal","Caucasian","05/08/2022","10:22:53",35.4983,0.168583333333333,"2195x1084",2.37938,61.28,"chrome","103.0.0","Desktop","Windows 10","Ponzo",1,4,53,"Ponzo_str0.0_diff0.0656",0,"1",0.06565,"arrowup",0,865,747,"1.2",0.0635849416251106,0.256222559506379,0.4034,0,0,0
"5c8fcb13dd3b360015b4dff6_dvbq9",30,"Male","Master","Portugal","Caucasian","05/08/2022","10:22:53",35.4983,0.168583333333333,"2195x1084",2.37938,61.28,"chrome","103.0.0","Desktop","Windows 10","Ponzo",1,4,54,"Ponzo_str0.0_diff0.1458",0,"1",0.14575,"arrowup",0,805,614,"1.2",0.136059444407096,0.381772183376421,0.5263,0,0,0
"5c8fcb13dd3b360015b4dff6_dvbq9",30,"Male","Master","Portugal","Caucasian","05/08/2022","10:22:53",35.4983,0.168583333333333,"2195x1084",2.37938,61.28,"chrome","103.0.0","Desktop","Windows 10","Ponzo",1,4,55,"Ponzo_str7.2_diff0.1458",7.2,"1",0.14575,"arrowup",0,854,507,"1.2",0.136059444407096,0.381772183376421,0.5263,2.10413415427021,2.68328157299975,1.93097876921126
"5c8fcb13dd3b360015b4dff6_dvbq9",30,"Male","Master","Portugal","Caucasian","05/08/2022","10:22:53",35.4983,0.168583333333333,"2195x1084",2.37938,61.28,"chrome","103.0.0","Desktop","Windows 10","Ponzo",1,4,56,"Ponzo_str-7.2_diff-0.46",-7.2,"-1",0.46,"arrowdown",0,920,470,"1.2",0.378436435720245,0.678232998312527,0.7719,-2.10413415427021,-2.68328157299975,-1.93097876921126
"5c8fcb13dd3b360015b4dff6_dvbq9",30,"Male","Master","Portugal","Caucasian","05/08/2022","10:22:53",35.4983,0.168583333333333,"2195x1084",2.37938,61.28,"chrome","103.0.0","Desktop","Windows 10","White",1,5,1,"White_str-10.0_diff12.1309",-10,"1",12.13089,"arrowleft",0,699,581,"1.2",2.57496746971894,3.48294272132058,2.2977,-2.39789527279837,-3.16227766016838,-2.15443469003188
"5c8fcb13dd3b360015b4dff6_dvbq9",30,"Male","Master","Portugal","Caucasian","05/08/2022","10:22:53",35.4983,0.168583333333333,"2195x1084",2.37938,61.28,"chrome","103.0.0","Desktop","Windows 10","White",1,5,2,"White_str15.0_diff4.3357",15,"1",4.33568,"arrowright",1,773,2489,"1.2",1.67441633680006,2.08222957427849,1.6306,2.77258872223978,3.87298334620742,2.46621207433047
"5c8fcb13dd3b360015b4dff6_dvbq9",30,"Male","Master","Portugal","Caucasian","05/08/2022","10:22:53",35.4983,0.168583333333333,"2195x1084",2.37938,61.28,"chrome","103.0.0","Desktop","Windows 10","White",1,5,3,"White_str10.0_diff17.5",10,"1",17.5,"arrowleft",0,674,622,"1.2",2.91777073208428,4.18330013267038,2.5962,2.39789527279837,3.16227766016838,2.15443469003188
"5c8fcb13dd3b360015b4dff6_dvbq9",30,"Male","Master","Portugal","Caucasian","05/08/2022","10:22:53",35.4983,0.168583333333333,"2195x1084",2.37938,61.28,"chrome","103.0.0","Desktop","Windows 10","White",1,5,4,"White_str-5.0_diff-17.5",-5,"-1",17.5,"arrowright",0,646,489,"1.2",2.91777073208428,4.18330013267038,2.5962,-1.79175946922805,-2.23606797749979,-1.7099759466767
"5c8fcb13dd3b360015b4dff6_dvbq9",30,"Male","Master","Portugal","Caucasian","05/08/2022","10:22:53",35.4983,0.168583333333333,"2195x1084",2.37938,61.28,"chrome","103.0.0","Desktop","Windows 10","White",1,5,5,"White_str-15.0_diff7.7428",-15,"1",7.74279,"arrowleft",0,785,616,"1.2",2.16822936069492,2.78258692586593,1.9783,-2.77258872223978,-3.87298334620742,-2.46621207433047
"5c8fcb13dd3b360015b4dff6_dvbq9",30,"Male","Master","Portugal","Caucasian","05/08/2022","10:22:53",35.4983,0.168583333333333,"2195x1084",2.37938,61.28,"chrome","103.0.0","Desktop","Windows 10","White",1,5,6,"White_str0.0_diff-12.1309",0,"-1",12.13089,"arrowright",0,536,663,"1.2",2.57496746971894,3.48294272132058,2.2977,0,0,0
"5c8fcb13dd3b360015b4dff6_dvbq9",30,"Male","Master","Portugal","Caucasian","05/08/2022","10:22:53",35.4983,0.168583333333333,"2195x1084",2.37938,61.28,"chrome","103.0.0","Desktop","Windows 10","White",1,5,7,"White_str-10.0_diff4.3357",-10,"1",4.33568,"arrowleft",0,960,700,"1.2",1.67441633680006,2.08222957427849,1.6306,-2.39789527279837,-3.16227766016838,-2.15443469003188
"5c8fcb13dd3b360015b4dff6_dvbq9",30,"Male","Master","Portugal","Caucasian","05/08/2022","10:22:53",35.4983,0.168583333333333,"2195x1084",2.37938,61.28,"chrome","103.0.0","Desktop","Windows 10","White",1,5,8,"White_str15.0_diff-17.5",15,"-1",17.5,"arrowright",0,734,1200,"1.2",2.91777073208428,4.18330013267038,2.5962,2.77258872223978,3.87298334620742,2.46621207433047
"5c8fcb13dd3b360015b4dff6_dvbq9",30,"Male","Master","Portugal","Caucasian","05/08/2022","10:22:53",35.4983,0.168583333333333,"2195x1084",2.37938,61.28,"chrome","103.0.0","Desktop","Windows 10","White",1,5,9,"White_str-5.0_diff17.5",-5,"1",17.5,"arrowleft",0,932,547,"1.2",2.91777073208428,4.18330013267038,2.5962,-1.79175946922805,-2.23606797749979,-1.7099759466767
"5c8fcb13dd3b360015b4dff6_dvbq9",30,"Male","Master","Portugal","Caucasian","05/08/2022","10:22:53",35.4983,0.168583333333333,"2195x1084",2.37938,61.28,"chrome","103.0.0","Desktop","Windows 10","White",1,5,10,"White_str-5.0_diff12.1309",-5,"1",12.13089,"arrowleft",0,990,489,"1.2",2.57496746971894,3.48294272132058,2.2977,-1.79175946922805,-2.23606797749979,-1.7099759466767
"5c8fcb13dd3b360015b4dff6_dvbq9",30,"Male","Master","Portugal","Caucasian","05/08/2022","10:22:53",35.4983,0.168583333333333,"2195x1084",2.37938,61.28,"chrome","103.0.0","Desktop","Windows 10","White",1,5,11,"White_str-5.0_diff4.3357",-5,"1",4.33568,"arrowleft",0,588,805,"1.2",1.67441633680006,2.08222957427849,1.6306,-1.79175946922805,-2.23606797749979,-1.7099759466767
"5c8fcb13dd3b360015b4dff6_dvbq9",30,"Male","Master","Portugal","Caucasian","05/08/2022","10:22:53",35.4983,0.168583333333333,"2195x1084",2.37938,61.28,"chrome","103.0.0","Desktop","Windows 10","White",1,5,12,"White_str-10.0_diff-12.1309",-10,"-1",12.13089,"arrowright",0,647,754,"1.2",2.57496746971894,3.48294272132058,2.2977,-2.39789527279837,-3.16227766016838,-2.15443469003188
"5c8fcb13dd3b360015b4dff6_dvbq9",30,"Male","Master","Portugal","Caucasian","05/08/2022","10:22:53",35.4983,0.168583333333333,"2195x1084",2.37938,61.28,"chrome","103.0.0","Desktop","Windows 10","White",1,5,13,"White_str-10.0_diff7.7428",-10,"1",7.74279,"arrowleft",0,747,514,"1.2",2.16822936069492,2.78258692586593,1.9783,-2.39789527279837,-3.16227766016838,-2.15443469003188
"5c8fcb13dd3b360015b4dff6_dvbq9",30,"Male","Master","Portugal","Caucasian","05/08/2022","10:22:53",35.4983,0.168583333333333,"2195x1084",2.37938,61.28,"chrome","103.0.0","Desktop","Windows 10","White",1,5,14,"White_str15.0_diff-7.7428",15,"-1",7.74279,"arrowleft",1,729,3505,"1.2",2.16822936069492,2.78258692586593,1.9783,2.77258872223978,3.87298334620742,2.46621207433047
"5c8fcb13dd3b360015b4dff6_dvbq9",30,"Male","Master","Portugal","Caucasian","05/08/2022","10:22:53",35.4983,0.168583333333333,"2195x1084",2.37938,61.28,"chrome","103.0.0","Desktop","Windows 10","White",1,5,15,"White_str5.0_diff7.7428",5,"1",7.74279,"arrowleft",0,820,1666,"1.2",2.16822936069492,2.78258692586593,1.9783,1.79175946922805,2.23606797749979,1.7099759466767
"5c8fcb13dd3b360015b4dff6_dvbq9",30,"Male","Master","Portugal","Caucasian","05/08/2022","10:22:53",35.4983,0.168583333333333,"2195x1084",2.37938,61.28,"chrome","103.0.0","Desktop","Windows 10","White",1,5,16,"White_str-15.0_diff-4.3357",-15,"-1",4.33568,"arrowright",0,723,629,"1.2",1.67441633680006,2.08222957427849,1.6306,-2.77258872223978,-3.87298334620742,-2.46621207433047
"5c8fcb13dd3b360015b4dff6_dvbq9",30,"Male","Master","Portugal","Caucasian","05/08/2022","10:22:53",35.4983,0.168583333333333,"2195x1084",2.37938,61.28,"chrome","103.0.0","Desktop","Windows 10","White",1,5,17,"White_str15.0_diff-4.3357",15,"-1",4.33568,"arrowleft",1,901,533,"1.2",1.67441633680006,2.08222957427849,1.6306,2.77258872223978,3.87298334620742,2.46621207433047
"5c8fcb13dd3b360015b4dff6_dvbq9",30,"Male","Master","Portugal","Caucasian","05/08/2022","10:22:53",35.4983,0.168583333333333,"2195x1084",2.37938,61.28,"chrome","103.0.0","Desktop","Windows 10","White",1,5,18,"White_str0.0_diff-7.7428",0,"-1",7.74279,"arrowright",0,650,545,"1.2",2.16822936069492,2.78258692586593,1.9783,0,0,0
"5c8fcb13dd3b360015b4dff6_dvbq9",30,"Male","Master","Portugal","Caucasian","05/08/2022","10:22:53",35.4983,0.168583333333333,"2195x1084",2.37938,61.28,"chrome","103.0.0","Desktop","Windows 10","White",1,5,19,"White_str-5.0_diff-4.3357",-5,"-1",4.33568,"arrowright",0,776,602,"1.2",1.67441633680006,2.08222957427849,1.6306,-1.79175946922805,-2.23606797749979,-1.7099759466767
"5c8fcb13dd3b360015b4dff6_dvbq9",30,"Male","Master","Portugal","Caucasian","05/08/2022","10:22:53",35.4983,0.168583333333333,"2195x1084",2.37938,61.28,"chrome","103.0.0","Desktop","Windows 10","White",1,5,20,"White_str-15.0_diff-17.5",-15,"-1",17.5,"arrowright",0,783,810,"1.2",2.91777073208428,4.18330013267038,2.5962,-2.77258872223978,-3.87298334620742,-2.46621207433047
"5c8fcb13dd3b360015b4dff6_dvbq9",30,"Male","Master","Portugal","Caucasian","05/08/2022","10:22:53",35.4983,0.168583333333333,"2195x1084",2.37938,61.28,"chrome","103.0.0","Desktop","Windows 10","White",1,5,21,"White_str-10.0_diff-17.5",-10,"-1",17.5,"arrowright",0,785,478,"1.2",2.91777073208428,4.18330013267038,2.5962,-2.39789527279837,-3.16227766016838,-2.15443469003188
"5c8fcb13dd3b360015b4dff6_dvbq9",30,"Male","Master","Portugal","Caucasian","05/08/2022","10:22:53",35.4983,0.168583333333333,"2195x1084",2.37938,61.28,"chrome","103.0.0","Desktop","Windows 10","White",1,5,22,"White_str15.0_diff17.5",15,"1",17.5,"arrowleft",0,564,581,"1.2",2.91777073208428,4.18330013267038,2.5962,2.77258872223978,3.87298334620742,2.46621207433047
"5c8fcb13dd3b360015b4dff6_dvbq9",30,"Male","Master","Portugal","Caucasian","05/08/2022","10:22:53",35.4983,0.168583333333333,"2195x1084",2.37938,61.28,"chrome","103.0.0","Desktop","Windows 10","White",1,5,23,"White_str10.0_diff-7.7428",10,"-1",7.74279,"arrowleft",1,627,1714,"1.2",2.16822936069492,2.78258692586593,1.9783,2.39789527279837,3.16227766016838,2.15443469003188
"5c8fcb13dd3b360015b4dff6_dvbq9",30,"Male","Master","Portugal","Caucasian","05/08/2022","10:22:53",35.4983,0.168583333333333,"2195x1084",2.37938,61.28,"chrome","103.0.0","Desktop","Windows 10","White",1,5,24,"White_str15.0_diff-12.1309",15,"-1",12.13089,"arrowright",0,947,674,"1.2",2.57496746971894,3.48294272132058,2.2977,2.77258872223978,3.87298334620742,2.46621207433047
"5c8fcb13dd3b360015b4dff6_dvbq9",30,"Male","Master","Portugal","Caucasian","05/08/2022","10:22:53",35.4983,0.168583333333333,"2195x1084",2.37938,61.28,"chrome","103.0.0","Desktop","Windows 10","White",1,5,25,"White_str10.0_diff7.7428",10,"1",7.74279,"arrowleft",0,998,1637,"1.2",2.16822936069492,2.78258692586593,1.9783,2.39789527279837,3.16227766016838,2.15443469003188
"5c8fcb13dd3b360015b4dff6_dvbq9",30,"Male","Master","Portugal","Caucasian","05/08/2022","10:22:53",35.4983,0.168583333333333,"2195x1084",2.37938,61.28,"chrome","103.0.0","Desktop","Windows 10","White",1,5,26,"White_str5.0_diff-4.3357",5,"-1",4.33568,"arrowright",0,960,2508,"1.2",1.67441633680006,2.08222957427849,1.6306,1.79175946922805,2.23606797749979,1.7099759466767
"5c8fcb13dd3b360015b4dff6_dvbq9",30,"Male","Master","Portugal","Caucasian","05/08/2022","10:22:53",35.4983,0.168583333333333,"2195x1084",2.37938,61.28,"chrome","103.0.0","Desktop","Windows 10","White",1,5,27,"White_str5.0_diff17.5",5,"1",17.5,"arrowleft",0,648,589,"1.2",2.91777073208428,4.18330013267038,2.5962,1.79175946922805,2.23606797749979,1.7099759466767
"5c8fcb13dd3b360015b4dff6_dvbq9",30,"Male","Master","Portugal","Caucasian","05/08/2022","10:22:53",35.4983,0.168583333333333,"2195x1084",2.37938,61.28,"chrome","103.0.0","Desktop","Windows 10","White",1,5,28,"White_str15.0_diff7.7428",15,"1",7.74279,"arrowleft",0,790,1723,"1.2",2.16822936069492,2.78258692586593,1.9783,2.77258872223978,3.87298334620742,2.46621207433047
"5c8fcb13dd3b360015b4dff6_dvbq9",30,"Male","Master","Portugal","Caucasian","05/08/2022","10:22:53",35.4983,0.168583333333333,"2195x1084",2.37938,61.28,"chrome","103.0.0","Desktop","Windows 10","White",1,5,29,"White_str15.0_diff12.1309",15,"1",12.13089,"arrowright",1,977,820,"1.2",2.57496746971894,3.48294272132058,2.2977,2.77258872223978,3.87298334620742,2.46621207433047
"5c8fcb13dd3b360015b4dff6_dvbq9",30,"Male","Master","Portugal","Caucasian","05/08/2022","10:22:53",35.4983,0.168583333333333,"2195x1084",2.37938,61.28,"chrome","103.0.0","Desktop","Windows 10","White",1,5,30,"White_str5.0_diff-7.7428",5,"-1",7.74279,"arrowright",0,675,885,"1.2",2.16822936069492,2.78258692586593,1.9783,1.79175946922805,2.23606797749979,1.7099759466767
"5c8fcb13dd3b360015b4dff6_dvbq9",30,"Male","Master","Portugal","Caucasian","05/08/2022","10:22:53",35.4983,0.168583333333333,"2195x1084",2.37938,61.28,"chrome","103.0.0","Desktop","Windows 10","White",1,5,31,"White_str-15.0_diff12.1309",-15,"1",12.13089,"arrowleft",0,656,537,"1.2",2.57496746971894,3.48294272132058,2.2977,-2.77258872223978,-3.87298334620742,-2.46621207433047
"5c8fcb13dd3b360015b4dff6_dvbq9",30,"Male","Master","Portugal","Caucasian","05/08/2022","10:22:53",35.4983,0.168583333333333,"2195x1084",2.37938,61.28,"chrome","103.0.0","Desktop","Windows 10","White",1,5,32,"White_str0.0_diff12.1309",0,"1",12.13089,"arrowleft",0,690,464,"1.2",2.57496746971894,3.48294272132058,2.2977,0,0,0
"5c8fcb13dd3b360015b4dff6_dvbq9",30,"Male","Master","Portugal","Caucasian","05/08/2022","10:22:53",35.4983,0.168583333333333,"2195x1084",2.37938,61.28,"chrome","103.0.0","Desktop","Windows 10","White",1,5,33,"White_str10.0_diff-12.1309",10,"-1",12.13089,"arrowright",0,685,643,"1.2",2.57496746971894,3.48294272132058,2.2977,2.39789527279837,3.16227766016838,2.15443469003188
"5c8fcb13dd3b360015b4dff6_dvbq9",30,"Male","Master","Portugal","Caucasian","05/08/2022","10:22:53",35.4983,0.168583333333333,"2195x1084",2.37938,61.28,"chrome","103.0.0","Desktop","Windows 10","White",1,5,34,"White_str-10.0_diff17.5",-10,"1",17.5,"arrowleft",0,607,443,"1.2",2.91777073208428,4.18330013267038,2.5962,-2.39789527279837,-3.16227766016838,-2.15443469003188
"5c8fcb13dd3b360015b4dff6_dvbq9",30,"Male","Master","Portugal","Caucasian","05/08/2022","10:22:53",35.4983,0.168583333333333,"2195x1084",2.37938,61.28,"chrome","103.0.0","Desktop","Windows 10","White",1,5,35,"White_str-15.0_diff17.5",-15,"1",17.5,"arrowleft",0,582,398,"1.2",2.91777073208428,4.18330013267038,2.5962,-2.77258872223978,-3.87298334620742,-2.46621207433047
"5c8fcb13dd3b360015b4dff6_dvbq9",30,"Male","Master","Portugal","Caucasian","05/08/2022","10:22:53",35.4983,0.168583333333333,"2195x1084",2.37938,61.28,"chrome","103.0.0","Desktop","Windows 10","White",1,5,36,"White_str10.0_diff-17.5",10,"-1",17.5,"arrowright",0,763,471,"1.2",2.91777073208428,4.18330013267038,2.5962,2.39789527279837,3.16227766016838,2.15443469003188
"5c8fcb13dd3b360015b4dff6_dvbq9",30,"Male","Master","Portugal","Caucasian","05/08/2022","10:22:53",35.4983,0.168583333333333,"2195x1084",2.37938,61.28,"chrome","103.0.0","Desktop","Windows 10","White",1,5,37,"White_str-5.0_diff7.7428",-5,"1",7.74279,"arrowleft",0,577,472,"1.2",2.16822936069492,2.78258692586593,1.9783,-1.79175946922805,-2.23606797749979,-1.7099759466767
"5c8fcb13dd3b360015b4dff6_dvbq9",30,"Male","Master","Portugal","Caucasian","05/08/2022","10:22:53",35.4983,0.168583333333333,"2195x1084",2.37938,61.28,"chrome","103.0.0","Desktop","Windows 10","White",1,5,38,"White_str5.0_diff4.3357",5,"1",4.33568,"arrowright",1,729,620,"1.2",1.67441633680006,2.08222957427849,1.6306,1.79175946922805,2.23606797749979,1.7099759466767
"5c8fcb13dd3b360015b4dff6_dvbq9",30,"Male","Master","Portugal","Caucasian","05/08/2022","10:22:53",35.4983,0.168583333333333,"2195x1084",2.37938,61.28,"chrome","103.0.0","Desktop","Windows 10","White",1,5,39,"White_str0.0_diff7.7428",0,"1",7.74279,"arrowleft",0,550,517,"1.2",2.16822936069492,2.78258692586593,1.9783,0,0,0
"5c8fcb13dd3b360015b4dff6_dvbq9",30,"Male","Master","Portugal","Caucasian","05/08/2022","10:22:53",35.4983,0.168583333333333,"2195x1084",2.37938,61.28,"chrome","103.0.0","Desktop","Windows 10","White",1,5,40,"White_str0.0_diff4.3357",0,"1",4.33568,"arrowleft",0,712,441,"1.2",1.67441633680006,2.08222957427849,1.6306,0,0,0
"5c8fcb13dd3b360015b4dff6_dvbq9",30,"Male","Master","Portugal","Caucasian","05/08/2022","10:22:53",35.4983,0.168583333333333,"2195x1084",2.37938,61.28,"chrome","103.0.0","Desktop","Windows 10","White",1,5,41,"White_str-15.0_diff-12.1309",-15,"-1",12.13089,"arrowright",0,600,480,"1.2",2.57496746971894,3.48294272132058,2.2977,-2.77258872223978,-3.87298334620742,-2.46621207433047
"5c8fcb13dd3b360015b4dff6_dvbq9",30,"Male","Master","Portugal","Caucasian","05/08/2022","10:22:53",35.4983,0.168583333333333,"2195x1084",2.37938,61.28,"chrome","103.0.0","Desktop","Windows 10","White",1,5,42,"White_str-15.0_diff4.3357",-15,"1",4.33568,"arrowleft",0,729,367,"1.2",1.67441633680006,2.08222957427849,1.6306,-2.77258872223978,-3.87298334620742,-2.46621207433047
