"Participant","Age","Sex","Education","Nationality","Ethnicity","Date","Time","Duration","Break_Duration","Screen_Resolution","Screen_Size","Screen_Refresh","Browser","Browser_Version","Device","Device_OS","Illusion_Type","Block","Block_Order","Trial","Stimulus","Illusion_Strength","Illusion_Side","Illusion_Difference","Answer","Error","ISI","RT","Illusion_Difference_log","Illusion_Difference_sqrt","Illusion_Difference_cbrt","Illusion_Strength_log","Illusion_Strength_sqrt","Illusion_Strength_cbrt","Pyllusion"
"5c8fcb13dd3b360015b4dff6_dvbq9",30,"Male","Master","Portugal","Caucasian","05/08/2022","10:22:53",35.4983,0.168583333333333,"2195x1084",2.37938,61.28,"chrome","103.0.0","Desktop","Windows 10","Delboeuf",1,1,1,"Delboeuf_str-1.55_diff-1",-1.55,"-1",1,"arrowright",0,584,678,0.693147180559945,1,1,-0.936093359170335,-1.24498995979887,-1.15729452726294,"1.2"
"5c8fcb13dd3b360015b4dff6_dvbq9",30,"Male","Master","Portugal","Caucasian","05/08/2022","10:22:53",35.4983,0.168583333333333,"2195x1084",2.37938,61.28,"chrome","103.0.0","Desktop","Windows 10","Delboeuf",1,1,2,"Delboeuf_str1.55_diff-1",1.55,"-1",1,"arrowleft",1,796,627,0.693147180559945,1,1,0.936093359170335,1.24498995979887,1.15729452726294,"1.2"
"5c8fcb13dd3b360015b4dff6_dvbq9",30,"Male","Master","Portugal","Caucasian","05/08/2022","10:22:53",35.4983,0.168583333333333,"2195x1084",2.37938,61.28,"chrome","103.0.0","Desktop","Windows 10","Delboeuf",1,1,3,"Delboeuf_str1.55_diff1",1.55,"1",1,"arrowleft",0,953,1684,0.693147180559945,1,1,0.936093359170335,1.24498995979887,1.15729452726294,"1.2"
"5c8fcb13dd3b360015b4dff6_dvbq9",30,"Male","Master","Portugal","Caucasian","05/08/2022","10:22:53",35.4983,0.168583333333333,"2195x1084",2.37938,61.28,"chrome","103.0.0","Desktop","Windows 10","Delboeuf",1,1,4,"Delboeuf_str0.0_diff-1",0,"-1",1,"arrowright",0,632,895,0.693147180559945,1,1,0,0,0,"1.2"
"5c8fcb13dd3b360015b4dff6_dvbq9",30,"Male","Master","Portugal","Caucasian","05/08/2022","10:22:53",35.4983,0.168583333333333,"2195x1084",2.37938,61.28,"chrome","103.0.0","Desktop","Windows 10","Delboeuf",1,1,5,"Delboeuf_str-1.55_diff1",-1.55,"1",1,"arrowleft",0,800,791,0.693147180559945,1,1,-0.936093359170335,-1.24498995979887,-1.15729452726294,"1.2"
"5c8fcb13dd3b360015b4dff6_dvbq9",30,"Male","Master","Portugal","Caucasian","05/08/2022","10:22:53",35.4983,0.168583333333333,"2195x1084",2.37938,61.28,"chrome","103.0.0","Desktop","Windows 10","Delboeuf",1,1,6,"Delboeuf_str0.0_diff1",0,"1",1,"arrowleft",0,708,497,0.693147180559945,1,1,0,0,0,"1.2"
"5c8fcb13dd3b360015b4dff6_dvbq9",30,"Male","Master","Portugal","Caucasian","05/08/2022","10:22:53",35.4983,0.168583333333333,"2195x1084",2.37938,61.28,"chrome","103.0.0","Desktop","Windows 10","Ebbinghaus",1,1,7,"Ebbinghaus_str0.0_diff-0.8",0,"-1",0.8,"arrowright",0,582,1009,0.587786664902119,0.894427190999916,0.9283,0,0,0,"1.2"
"5c8fcb13dd3b360015b4dff6_dvbq9",30,"Male","Master","Portugal","Caucasian","05/08/2022","10:22:53",35.4983,0.168583333333333,"2195x1084",2.37938,61.28,"chrome","103.0.0","Desktop","Windows 10","Ebbinghaus",1,1,8,"Ebbinghaus_str1.45_diff0.8",1.45,"1",0.8,"arrowleft",0,965,950,0.587786664902119,0.894427190999916,0.9283,0.896088024556635,1.20415945787923,1.13185119596295,"1.2"
"5c8fcb13dd3b360015b4dff6_dvbq9",30,"Male","Master","Portugal","Caucasian","05/08/2022","10:22:53",35.4983,0.168583333333333,"2195x1084",2.37938,61.28,"chrome","103.0.0","Desktop","Windows 10","Ebbinghaus",1,1,9,"Ebbinghaus_str-1.45_diff0.8",-1.45,"1",0.8,"arrowleft",0,509,1041,0.587786664902119,0.894427190999916,0.9283,-0.896088024556635,-1.20415945787923,-1.13185119596295,"1.2"
"5c8fcb13dd3b360015b4dff6_dvbq9",30,"Male","Master","Portugal","Caucasian","05/08/2022","10:22:53",35.4983,0.168583333333333,"2195x1084",2.37938,61.28,"chrome","103.0.0","Desktop","Windows 10","Ebbinghaus",1,1,10,"Ebbinghaus_str-1.45_diff-0.8",-1.45,"-1",0.8,"arrowright",0,685,630,0.587786664902119,0.894427190999916,0.9283,-0.896088024556635,-1.20415945787923,-1.13185119596295,"1.2"
"5c8fcb13dd3b360015b4dff6_dvbq9",30,"Male","Master","Portugal","Caucasian","05/08/2022","10:22:53",35.4983,0.168583333333333,"2195x1084",2.37938,61.28,"chrome","103.0.0","Desktop","Windows 10","Ebbinghaus",1,1,11,"Ebbinghaus_str1.45_diff-0.8",1.45,"-1",0.8,"arrowright",0,937,1933,0.587786664902119,0.894427190999916,0.9283,0.896088024556635,1.20415945787923,1.13185119596295,"1.2"
"5c8fcb13dd3b360015b4dff6_dvbq9",30,"Male","Master","Portugal","Caucasian","05/08/2022","10:22:53",35.4983,0.168583333333333,"2195x1084",2.37938,61.28,"chrome","103.0.0","Desktop","Windows 10","Ebbinghaus",1,1,12,"Ebbinghaus_str0.0_diff0.8",0,"1",0.8,"arrowleft",0,599,791,0.587786664902119,0.894427190999916,0.9283,0,0,0,"1.2"
"5c8fcb13dd3b360015b4dff6_dvbq9",30,"Male","Master","Portugal","Caucasian","05/08/2022","10:22:53",35.4983,0.168583333333333,"2195x1084",2.37938,61.28,"chrome","103.0.0","Desktop","Windows 10","Müller-Lyer",1,1,13,"MullerLyer_str0.0_diff-0.6",0,"-1",0.6,"arrowdown",0,827,661,0.470003629245736,0.774596669241483,0.8434,0,0,0,"1.2"
"5c8fcb13dd3b360015b4dff6_dvbq9",30,"Male","Master","Portugal","Caucasian","05/08/2022","10:22:53",35.4983,0.168583333333333,"2195x1084",2.37938,61.28,"chrome","103.0.0","Desktop","Windows 10","Müller-Lyer",1,1,14,"MullerLyer_str0.0_diff0.6",0,"1",0.6,"arrowup",0,899,550,0.470003629245736,0.774596669241483,0.8434,0,0,0,"1.2"
"5c8fcb13dd3b360015b4dff6_dvbq9",30,"Male","Master","Portugal","Caucasian","05/08/2022","10:22:53",35.4983,0.168583333333333,"2195x1084",2.37938,61.28,"chrome","103.0.0","Desktop","Windows 10","Müller-Lyer",1,1,15,"MullerLyer_str35.0_diff-0.6",35,"-1",0.6,"arrowdown",0,784,1260,0.470003629245736,0.774596669241483,0.8434,3.58351893845611,5.91607978309962,3.27106631018859,"1.2"
"5c8fcb13dd3b360015b4dff6_dvbq9",30,"Male","Master","Portugal","Caucasian","05/08/2022","10:22:53",35.4983,0.168583333333333,"2195x1084",2.37938,61.28,"chrome","103.0.0","Desktop","Windows 10","Müller-Lyer",1,1,16,"MullerLyer_str-35.0_diff-0.6",-35,"-1",0.6,"arrowdown",0,555,667,0.470003629245736,0.774596669241483,0.8434,-3.58351893845611,-5.91607978309962,-3.27106631018859,"1.2"
"5c8fcb13dd3b360015b4dff6_dvbq9",30,"Male","Master","Portugal","Caucasian","05/08/2022","10:22:53",35.4983,0.168583333333333,"2195x1084",2.37938,61.28,"chrome","103.0.0","Desktop","Windows 10","Müller-Lyer",1,1,17,"MullerLyer_str35.0_diff0.6",35,"1",0.6,"arrowup",0,915,988,0.470003629245736,0.774596669241483,0.8434,3.58351893845611,5.91607978309962,3.27106631018859,"1.2"
"5c8fcb13dd3b360015b4dff6_dvbq9",30,"Male","Master","Portugal","Caucasian","05/08/2022","10:22:53",35.4983,0.168583333333333,"2195x1084",2.37938,61.28,"chrome","103.0.0","Desktop","Windows 10","Müller-Lyer",1,1,18,"MullerLyer_str-35.0_diff0.6",-35,"1",0.6,"arrowup",0,805,530,0.470003629245736,0.774596669241483,0.8434,-3.58351893845611,-5.91607978309962,-3.27106631018859,"1.2"
"5c8fcb13dd3b360015b4dff6_dvbq9",30,"Male","Master","Portugal","Caucasian","05/08/2022","10:22:53",35.4983,0.168583333333333,"2195x1084",2.37938,61.28,"chrome","103.0.0","Desktop","Windows 10","Poggendorff",1,1,19,"Poggendorff_str0.0_diff0.4",0,"1",0.4,"arrowup",0,925,1002,0.336472236621213,0.632455532033676,0.7368,0,0,0,"1.2"
"5c8fcb13dd3b360015b4dff6_dvbq9",30,"Male","Master","Portugal","Caucasian","05/08/2022","10:22:53",35.4983,0.168583333333333,"2195x1084",2.37938,61.28,"chrome","103.0.0","Desktop","Windows 10","Poggendorff",1,1,20,"Poggendorff_str32.0_diff0.4",32,"1",0.4,"arrowup",0,656,2616,0.336472236621213,0.632455532033676,0.7368,3.49650756146648,5.65685424949238,3.1748021039364,"1.2"
"5c8fcb13dd3b360015b4dff6_dvbq9",30,"Male","Master","Portugal","Caucasian","05/08/2022","10:22:53",35.4983,0.168583333333333,"2195x1084",2.37938,61.28,"chrome","103.0.0","Desktop","Windows 10","Poggendorff",1,1,21,"Poggendorff_str-32.0_diff-0.4",-32,"-1",0.4,"arrowup",1,926,931,0.336472236621213,0.632455532033676,0.7368,-3.49650756146648,-5.65685424949238,-3.1748021039364,"1.2"
"5c8fcb13dd3b360015b4dff6_dvbq9",30,"Male","Master","Portugal","Caucasian","05/08/2022","10:22:53",35.4983,0.168583333333333,"2195x1084",2.37938,61.28,"chrome","103.0.0","Desktop","Windows 10","Poggendorff",1,1,22,"Poggendorff_str0.0_diff-0.4",0,"-1",0.4,"arrowdown",0,987,1030,0.336472236621213,0.632455532033676,0.7368,0,0,0,"1.2"
"5c8fcb13dd3b360015b4dff6_dvbq9",30,"Male","Master","Portugal","Caucasian","05/08/2022","10:22:53",35.4983,0.168583333333333,"2195x1084",2.37938,61.28,"chrome","103.0.0","Desktop","Windows 10","Poggendorff",1,1,23,"Poggendorff_str32.0_diff-0.4",32,"-1",0.4,"arrowup",1,742,1373,0.336472236621213,0.632455532033676,0.7368,3.49650756146648,5.65685424949238,3.1748021039364,"1.2"
"5c8fcb13dd3b360015b4dff6_dvbq9",30,"Male","Master","Portugal","Caucasian","05/08/2022","10:22:53",35.4983,0.168583333333333,"2195x1084",2.37938,61.28,"chrome","103.0.0","Desktop","Windows 10","Poggendorff",1,1,24,"Poggendorff_str-32.0_diff0.4",-32,"1",0.4,"arrowup",0,782,763,0.336472236621213,0.632455532033676,0.7368,-3.49650756146648,-5.65685424949238,-3.1748021039364,"1.2"
"5c8fcb13dd3b360015b4dff6_dvbq9",30,"Male","Master","Portugal","Caucasian","05/08/2022","10:22:53",35.4983,0.168583333333333,"2195x1084",2.37938,61.28,"chrome","103.0.0","Desktop","Windows 10","Ponzo",1,1,25,"Ponzo_str-18.0_diff0.6",-18,"1",0.6,"arrowup",0,644,697,0.470003629245736,0.774596669241483,0.8434,-2.94443897916644,-4.24264068711928,-2.6207413942089,"1.2"
"5c8fcb13dd3b360015b4dff6_dvbq9",30,"Male","Master","Portugal","Caucasian","05/08/2022","10:22:53",35.4983,0.168583333333333,"2195x1084",2.37938,61.28,"chrome","103.0.0","Desktop","Windows 10","Ponzo",1,1,26,"Ponzo_str18.0_diff0.6",18,"1",0.6,"arrowup",0,625,701,0.470003629245736,0.774596669241483,0.8434,2.94443897916644,4.24264068711929,2.6207413942089,"1.2"
"5c8fcb13dd3b360015b4dff6_dvbq9",30,"Male","Master","Portugal","Caucasian","05/08/2022","10:22:53",35.4983,0.168583333333333,"2195x1084",2.37938,61.28,"chrome","103.0.0","Desktop","Windows 10","Ponzo",1,1,27,"Ponzo_str0.0_diff-0.6",0,"-1",0.6,"arrowdown",0,689,574,0.470003629245736,0.774596669241483,0.8434,0,0,0,"1.2"
"5c8fcb13dd3b360015b4dff6_dvbq9",30,"Male","Master","Portugal","Caucasian","05/08/2022","10:22:53",35.4983,0.168583333333333,"2195x1084",2.37938,61.28,"chrome","103.0.0","Desktop","Windows 10","Ponzo",1,1,28,"Ponzo_str-18.0_diff-0.6",-18,"-1",0.6,"arrowdown",0,644,763,0.470003629245736,0.774596669241483,0.8434,-2.94443897916644,-4.24264068711928,-2.6207413942089,"1.2"
"5c8fcb13dd3b360015b4dff6_dvbq9",30,"Male","Master","Portugal","Caucasian","05/08/2022","10:22:53",35.4983,0.168583333333333,"2195x1084",2.37938,61.28,"chrome","103.0.0","Desktop","Windows 10","Ponzo",1,1,29,"Ponzo_str18.0_diff-0.6",18,"-1",0.6,"arrowdown",0,565,958,0.470003629245736,0.774596669241483,0.8434,2.94443897916644,4.24264068711929,2.6207413942089,"1.2"
"5c8fcb13dd3b360015b4dff6_dvbq9",30,"Male","Master","Portugal","Caucasian","05/08/2022","10:22:53",35.4983,0.168583333333333,"2195x1084",2.37938,61.28,"chrome","103.0.0","Desktop","Windows 10","Ponzo",1,1,30,"Ponzo_str0.0_diff0.6",0,"1",0.6,"arrowup",0,612,473,0.470003629245736,0.774596669241483,0.8434,0,0,0,"1.2"
"5c8fcb13dd3b360015b4dff6_dvbq9",30,"Male","Master","Portugal","Caucasian","05/08/2022","10:22:53",35.4983,0.168583333333333,"2195x1084",2.37938,61.28,"chrome","103.0.0","Desktop","Windows 10","Rod-Frame",1,1,31,"RodFrame_str0.0_diff12",0,"1",12,"arrowleft",0,654,845,2.56494935746154,3.46410161513775,2.2894,0,0,0,"1.2"
"5c8fcb13dd3b360015b4dff6_dvbq9",30,"Male","Master","Portugal","Caucasian","05/08/2022","10:22:53",35.4983,0.168583333333333,"2195x1084",2.37938,61.28,"chrome","103.0.0","Desktop","Windows 10","Rod-Frame",1,1,32,"RodFrame_str10.0_diff-12",10,"-1",12,"arrowright",0,860,398,2.56494935746154,3.46410161513775,2.2894,2.39789527279837,3.16227766016838,2.15443469003188,"1.2"
"5c8fcb13dd3b360015b4dff6_dvbq9",30,"Male","Master","Portugal","Caucasian","05/08/2022","10:22:53",35.4983,0.168583333333333,"2195x1084",2.37938,61.28,"chrome","103.0.0","Desktop","Windows 10","Rod-Frame",1,1,33,"RodFrame_str10.0_diff12",10,"1",12,"arrowleft",0,672,536,2.56494935746154,3.46410161513775,2.2894,2.39789527279837,3.16227766016838,2.15443469003188,"1.2"
"5c8fcb13dd3b360015b4dff6_dvbq9",30,"Male","Master","Portugal","Caucasian","05/08/2022","10:22:53",35.4983,0.168583333333333,"2195x1084",2.37938,61.28,"chrome","103.0.0","Desktop","Windows 10","Rod-Frame",1,1,34,"RodFrame_str0.0_diff-12",0,"-1",12,"arrowright",0,868,365,2.56494935746154,3.46410161513775,2.2894,0,0,0,"1.2"
"5c8fcb13dd3b360015b4dff6_dvbq9",30,"Male","Master","Portugal","Caucasian","05/08/2022","10:22:53",35.4983,0.168583333333333,"2195x1084",2.37938,61.28,"chrome","103.0.0","Desktop","Windows 10","Rod-Frame",1,1,35,"RodFrame_str-10.0_diff12",-10,"1",12,"arrowleft",0,919,412,2.56494935746154,3.46410161513775,2.2894,-2.39789527279837,-3.16227766016838,-2.15443469003188,"1.2"
"5c8fcb13dd3b360015b4dff6_dvbq9",30,"Male","Master","Portugal","Caucasian","05/08/2022","10:22:53",35.4983,0.168583333333333,"2195x1084",2.37938,61.28,"chrome","103.0.0","Desktop","Windows 10","Rod-Frame",1,1,36,"RodFrame_str-10.0_diff-12",-10,"-1",12,"arrowright",0,641,405,2.56494935746154,3.46410161513775,2.2894,-2.39789527279837,-3.16227766016838,-2.15443469003188,"1.2"
"5c8fcb13dd3b360015b4dff6_dvbq9",30,"Male","Master","Portugal","Caucasian","05/08/2022","10:22:53",35.4983,0.168583333333333,"2195x1084",2.37938,61.28,"chrome","103.0.0","Desktop","Windows 10","Vertical-Horizontal",1,1,37,"VerticalHorizontal_str47.5_diff0.4",47.5,"1",0.4,"arrowleft",0,531,724,0.336472236621213,0.632455532033676,0.7368,3.88156379794344,6.89202437604511,3.62157822172087,"1.2"
"5c8fcb13dd3b360015b4dff6_dvbq9",30,"Male","Master","Portugal","Caucasian","05/08/2022","10:22:53",35.4983,0.168583333333333,"2195x1084",2.37938,61.28,"chrome","103.0.0","Desktop","Windows 10","Vertical-Horizontal",1,1,38,"VerticalHorizontal_str0.0_diff-0.4",0,"-1",0.4,"arrowright",0,723,402,0.336472236621213,0.632455532033676,0.7368,0,0,0,"1.2"
"5c8fcb13dd3b360015b4dff6_dvbq9",30,"Male","Master","Portugal","Caucasian","05/08/2022","10:22:53",35.4983,0.168583333333333,"2195x1084",2.37938,61.28,"chrome","103.0.0","Desktop","Windows 10","Vertical-Horizontal",1,1,39,"VerticalHorizontal_str0.0_diff0.4",0,"1",0.4,"arrowleft",0,867,400,0.336472236621213,0.632455532033676,0.7368,0,0,0,"1.2"
"5c8fcb13dd3b360015b4dff6_dvbq9",30,"Male","Master","Portugal","Caucasian","05/08/2022","10:22:53",35.4983,0.168583333333333,"2195x1084",2.37938,61.28,"chrome","103.0.0","Desktop","Windows 10","Vertical-Horizontal",1,1,40,"VerticalHorizontal_str47.5_diff-0.4",47.5,"-1",0.4,"arrowright",0,976,358,0.336472236621213,0.632455532033676,0.7368,3.88156379794344,6.89202437604511,3.62157822172087,"1.2"
"5c8fcb13dd3b360015b4dff6_dvbq9",30,"Male","Master","Portugal","Caucasian","05/08/2022","10:22:53",35.4983,0.168583333333333,"2195x1084",2.37938,61.28,"chrome","103.0.0","Desktop","Windows 10","Vertical-Horizontal",1,1,41,"VerticalHorizontal_str-47.5_diff-0.4",-47.5,"-1",0.4,"arrowright",0,613,463,0.336472236621213,0.632455532033676,0.7368,-3.88156379794344,-6.89202437604511,-3.62157822172087,"1.2"
"5c8fcb13dd3b360015b4dff6_dvbq9",30,"Male","Master","Portugal","Caucasian","05/08/2022","10:22:53",35.4983,0.168583333333333,"2195x1084",2.37938,61.28,"chrome","103.0.0","Desktop","Windows 10","Vertical-Horizontal",1,1,42,"VerticalHorizontal_str-47.5_diff0.4",-47.5,"1",0.4,"arrowleft",0,662,411,0.336472236621213,0.632455532033676,0.7368,-3.88156379794344,-6.89202437604511,-3.62157822172087,"1.2"
"5c8fcb13dd3b360015b4dff6_dvbq9",30,"Male","Master","Portugal","Caucasian","05/08/2022","10:22:53",35.4983,0.168583333333333,"2195x1084",2.37938,61.28,"chrome","103.0.0","Desktop","Windows 10","White",1,1,43,"White_str-12.5_diff-20",-12.5,"-1",20,"arrowright",0,644,831,3.04452243772342,4.47213595499958,2.7144,-2.60268968544438,-3.53553390593274,-2.32079441680639,"1.2"
"5c8fcb13dd3b360015b4dff6_dvbq9",30,"Male","Master","Portugal","Caucasian","05/08/2022","10:22:53",35.4983,0.168583333333333,"2195x1084",2.37938,61.28,"chrome","103.0.0","Desktop","Windows 10","White",1,1,44,"White_str0.0_diff-20",0,"-1",20,"arrowright",0,527,432,3.04452243772342,4.47213595499958,2.7144,0,0,0,"1.2"
"5c8fcb13dd3b360015b4dff6_dvbq9",30,"Male","Master","Portugal","Caucasian","05/08/2022","10:22:53",35.4983,0.168583333333333,"2195x1084",2.37938,61.28,"chrome","103.0.0","Desktop","Windows 10","White",1,1,45,"White_str12.5_diff20",12.5,"1",20,"arrowleft",0,568,437,3.04452243772342,4.47213595499958,2.7144,2.60268968544438,3.53553390593274,2.32079441680639,"1.2"
"5c8fcb13dd3b360015b4dff6_dvbq9",30,"Male","Master","Portugal","Caucasian","05/08/2022","10:22:53",35.4983,0.168583333333333,"2195x1084",2.37938,61.28,"chrome","103.0.0","Desktop","Windows 10","White",1,1,46,"White_str-12.5_diff20",-12.5,"1",20,"arrowleft",0,893,380,3.04452243772342,4.47213595499958,2.7144,-2.60268968544438,-3.53553390593274,-2.32079441680639,"1.2"
"5c8fcb13dd3b360015b4dff6_dvbq9",30,"Male","Master","Portugal","Caucasian","05/08/2022","10:22:53",35.4983,0.168583333333333,"2195x1084",2.37938,61.28,"chrome","103.0.0","Desktop","Windows 10","White",1,1,47,"White_str12.5_diff-20",12.5,"-1",20,"arrowright",0,575,564,3.04452243772342,4.47213595499958,2.7144,2.60268968544438,3.53553390593274,2.32079441680639,"1.2"
"5c8fcb13dd3b360015b4dff6_dvbq9",30,"Male","Master","Portugal","Caucasian","05/08/2022","10:22:53",35.4983,0.168583333333333,"2195x1084",2.37938,61.28,"chrome","103.0.0","Desktop","Windows 10","White",1,1,48,"White_str0.0_diff20",0,"1",20,"arrowleft",0,751,463,3.04452243772342,4.47213595499958,2.7144,0,0,0,"1.2"
"5c8fcb13dd3b360015b4dff6_dvbq9",30,"Male","Master","Portugal","Caucasian","05/08/2022","10:22:53",35.4983,0.168583333333333,"2195x1084",2.37938,61.28,"chrome","103.0.0","Desktop","Windows 10","Zöllner",1,1,49,"Zollner_str55.0_diff6",55,"1",6,"arrowleft",0,541,526,1.94591014905531,2.44948974278318,1.8171,4.02535169073515,7.41619848709566,3.80295246076139,"1.2"
"5c8fcb13dd3b360015b4dff6_dvbq9",30,"Male","Master","Portugal","Caucasian","05/08/2022","10:22:53",35.4983,0.168583333333333,"2195x1084",2.37938,61.28,"chrome","103.0.0","Desktop","Windows 10","Zöllner",1,1,50,"Zollner_str0.0_diff-6",0,"-1",6,"arrowright",0,746,469,1.94591014905531,2.44948974278318,1.8171,0,0,0,"1.2"
"5c8fcb13dd3b360015b4dff6_dvbq9",30,"Male","Master","Portugal","Caucasian","05/08/2022","10:22:53",35.4983,0.168583333333333,"2195x1084",2.37938,61.28,"chrome","103.0.0","Desktop","Windows 10","Zöllner",1,1,51,"Zollner_str-55.0_diff-6",-55,"-1",6,"arrowright",0,545,603,1.94591014905531,2.44948974278318,1.8171,-4.02535169073515,-7.41619848709566,-3.80295246076139,"1.2"
"5c8fcb13dd3b360015b4dff6_dvbq9",30,"Male","Master","Portugal","Caucasian","05/08/2022","10:22:53",35.4983,0.168583333333333,"2195x1084",2.37938,61.28,"chrome","103.0.0","Desktop","Windows 10","Zöllner",1,1,52,"Zollner_str55.0_diff-6",55,"-1",6,"arrowright",0,949,763,1.94591014905531,2.44948974278318,1.8171,4.02535169073515,7.41619848709566,3.80295246076139,"1.2"
"5c8fcb13dd3b360015b4dff6_dvbq9",30,"Male","Master","Portugal","Caucasian","05/08/2022","10:22:53",35.4983,0.168583333333333,"2195x1084",2.37938,61.28,"chrome","103.0.0","Desktop","Windows 10","Zöllner",1,1,53,"Zollner_str-55.0_diff6",-55,"1",6,"arrowleft",0,750,704,1.94591014905531,2.44948974278318,1.8171,-4.02535169073515,-7.41619848709566,-3.80295246076139,"1.2"
"5c8fcb13dd3b360015b4dff6_dvbq9",30,"Male","Master","Portugal","Caucasian","05/08/2022","10:22:53",35.4983,0.168583333333333,"2195x1084",2.37938,61.28,"chrome","103.0.0","Desktop","Windows 10","Zöllner",1,1,54,"Zollner_str0.0_diff6",0,"1",6,"arrowleft",0,751,1040,1.94591014905531,2.44948974278318,1.8171,0,0,0,"1.2"
"5c8fcb13dd3b360015b4dff6_dvbq9",30,"Male","Master","Portugal","Caucasian","05/08/2022","10:22:53",35.4983,0.168583333333333,"2195x1084",2.37938,61.28,"chrome","103.0.0","Desktop","Windows 10","Contrast",1,1,55,"Contrast_str22.5_diff25",22.5,"1",25,"arrowup",0,980,518,3.25809653802148,5,2.924,3.15700042115011,4.74341649025257,2.82310808664309,"1.2"
"5c8fcb13dd3b360015b4dff6_dvbq9",30,"Male","Master","Portugal","Caucasian","05/08/2022","10:22:53",35.4983,0.168583333333333,"2195x1084",2.37938,61.28,"chrome","103.0.0","Desktop","Windows 10","Contrast",1,1,56,"Contrast_str-22.5_diff25",-22.5,"1",25,"arrowup",0,815,997,3.25809653802148,5,2.924,-3.15700042115011,-4.74341649025257,-2.82310808664309,"1.2"
"5c8fcb13dd3b360015b4dff6_dvbq9",30,"Male","Master","Portugal","Caucasian","05/08/2022","10:22:53",35.4983,0.168583333333333,"2195x1084",2.37938,61.28,"chrome","103.0.0","Desktop","Windows 10","Contrast",1,1,57,"Contrast_str0.0_diff-25",0,"-1",25,"arrowdown",0,719,578,3.25809653802148,5,2.924,0,0,0,"1.2"
"5c8fcb13dd3b360015b4dff6_dvbq9",30,"Male","Master","Portugal","Caucasian","05/08/2022","10:22:53",35.4983,0.168583333333333,"2195x1084",2.37938,61.28,"chrome","103.0.0","Desktop","Windows 10","Contrast",1,1,58,"Contrast_str-22.5_diff-25",-22.5,"-1",25,"arrowdown",0,986,909,3.25809653802148,5,2.924,-3.15700042115011,-4.74341649025257,-2.82310808664309,"1.2"
"5c8fcb13dd3b360015b4dff6_dvbq9",30,"Male","Master","Portugal","Caucasian","05/08/2022","10:22:53",35.4983,0.168583333333333,"2195x1084",2.37938,61.28,"chrome","103.0.0","Desktop","Windows 10","Contrast",1,1,59,"Contrast_str0.0_diff25",0,"1",25,"arrowup",0,656,563,3.25809653802148,5,2.924,0,0,0,"1.2"
"5c8fcb13dd3b360015b4dff6_dvbq9",30,"Male","Master","Portugal","Caucasian","05/08/2022","10:22:53",35.4983,0.168583333333333,"2195x1084",2.37938,61.28,"chrome","103.0.0","Desktop","Windows 10","Contrast",1,1,60,"Contrast_str22.5_diff-25",22.5,"-1",25,"arrowdown",0,575,494,3.25809653802148,5,2.924,3.15700042115011,4.74341649025257,2.82310808664309,"1.2"
"5c8fcb13dd3b360015b4dff6_dvbq9",30,"Male","Master","Portugal","Caucasian","05/08/2022","10:22:53",35.4983,0.168583333333333,"2195x1084",2.37938,61.28,"chrome","103.0.0","Desktop","Windows 10","Müller-Lyer",1,1,61,"MullerLyer_str-14.0_diff-0.1458",-14,"-1",0.14575,"arrowdown",0,763,538,0.136059444407096,0.381772183376421,0.5263,-2.70805020110221,-3.74165738677394,-2.41014226417523,"1.2"
"5c8fcb13dd3b360015b4dff6_dvbq9",30,"Male","Master","Portugal","Caucasian","05/08/2022","10:22:53",35.4983,0.168583333333333,"2195x1084",2.37938,61.28,"chrome","103.0.0","Desktop","Windows 10","Müller-Lyer",1,1,62,"MullerLyer_str0.0_diff-0.2735",0,"-1",0.27349,"arrowdown",0,731,411,0.241761163031201,0.52296271377604,0.6491,0,0,0,"1.2"
"5c8fcb13dd3b360015b4dff6_dvbq9",30,"Male","Master","Portugal","Caucasian","05/08/2022","10:22:53",35.4983,0.168583333333333,"2195x1084",2.37938,61.28,"chrome","103.0.0","Desktop","Windows 10","Müller-Lyer",1,1,63,"MullerLyer_str28.0_diff0.2735",28,"1",0.27349,"arrowdown",1,637,815,0.241761163031201,0.52296271377604,0.6491,3.36729582998647,5.29150262212918,3.03658897187566,"1.2"
"5c8fcb13dd3b360015b4dff6_dvbq9",30,"Male","Master","Portugal","Caucasian","05/08/2022","10:22:53",35.4983,0.168583333333333,"2195x1084",2.37938,61.28,"chrome","103.0.0","Desktop","Windows 10","Müller-Lyer",1,1,64,"MullerLyer_str0.0_diff0.46",0,"1",0.46,"arrowup",0,892,533,0.378436435720245,0.678232998312527,0.7719,0,0,0,"1.2"
"5c8fcb13dd3b360015b4dff6_dvbq9",30,"Male","Master","Portugal","Caucasian","05/08/2022","10:22:53",35.4983,0.168583333333333,"2195x1084",2.37938,61.28,"chrome","103.0.0","Desktop","Windows 10","Müller-Lyer",1,1,65,"MullerLyer_str14.0_diff0.46",14,"1",0.46,"arrowup",0,995,440,0.378436435720245,0.678232998312527,0.7719,2.70805020110221,3.74165738677394,2.41014226417523,"1.2"
"5c8fcb13dd3b360015b4dff6_dvbq9",30,"Male","Master","Portugal","Caucasian","05/08/2022","10:22:53",35.4983,0.168583333333333,"2195x1084",2.37938,61.28,"chrome","103.0.0","Desktop","Windows 10","Müller-Lyer",1,1,66,"MullerLyer_str0.0_diff0.2735",0,"1",0.27349,"arrowup",0,732,475,0.241761163031201,0.52296271377604,0.6491,0,0,0,"1.2"
"5c8fcb13dd3b360015b4dff6_dvbq9",30,"Male","Master","Portugal","Caucasian","05/08/2022","10:22:53",35.4983,0.168583333333333,"2195x1084",2.37938,61.28,"chrome","103.0.0","Desktop","Windows 10","Müller-Lyer",1,1,67,"MullerLyer_str0.0_diff-0.1458",0,"-1",0.14575,"arrowdown",0,590,569,0.136059444407096,0.381772183376421,0.5263,0,0,0,"1.2"
"5c8fcb13dd3b360015b4dff6_dvbq9",30,"Male","Master","Portugal","Caucasian","05/08/2022","10:22:53",35.4983,0.168583333333333,"2195x1084",2.37938,61.28,"chrome","103.0.0","Desktop","Windows 10","Müller-Lyer",1,1,68,"MullerLyer_str42.0_diff-0.0656",42,"-1",0.06565,"arrowup",1,787,446,0.0635849416251106,0.256222559506379,0.4034,3.76120011569356,6.48074069840786,3.47602664488645,"1.2"
"5c8fcb13dd3b360015b4dff6_dvbq9",30,"Male","Master","Portugal","Caucasian","05/08/2022","10:22:53",35.4983,0.168583333333333,"2195x1084",2.37938,61.28,"chrome","103.0.0","Desktop","Windows 10","Müller-Lyer",1,1,69,"MullerLyer_str-14.0_diff0.1458",-14,"1",0.14575,"arrowup",0,959,414,0.136059444407096,0.381772183376421,0.5263,-2.70805020110221,-3.74165738677394,-2.41014226417523,"1.2"
"5c8fcb13dd3b360015b4dff6_dvbq9",30,"Male","Master","Portugal","Caucasian","05/08/2022","10:22:53",35.4983,0.168583333333333,"2195x1084",2.37938,61.28,"chrome","103.0.0","Desktop","Windows 10","Müller-Lyer",1,1,70,"MullerLyer_str-28.0_diff0.1458",-28,"1",0.14575,"arrowup",0,730,426,0.136059444407096,0.381772183376421,0.5263,-3.36729582998647,-5.29150262212918,-3.03658897187566,"1.2"
"5c8fcb13dd3b360015b4dff6_dvbq9",30,"Male","Master","Portugal","Caucasian","05/08/2022","10:22:53",35.4983,0.168583333333333,"2195x1084",2.37938,61.28,"chrome","103.0.0","Desktop","Windows 10","Müller-Lyer",1,1,71,"MullerLyer_str-14.0_diff0.46",-14,"1",0.46,"arrowup",0,595,443,0.378436435720245,0.678232998312527,0.7719,-2.70805020110221,-3.74165738677394,-2.41014226417523,"1.2"
"5c8fcb13dd3b360015b4dff6_dvbq9",30,"Male","Master","Portugal","Caucasian","05/08/2022","10:22:53",35.4983,0.168583333333333,"2195x1084",2.37938,61.28,"chrome","103.0.0","Desktop","Windows 10","Müller-Lyer",1,1,72,"MullerLyer_str-42.0_diff-0.1458",-42,"-1",0.14575,"arrowdown",0,697,444,0.136059444407096,0.381772183376421,0.5263,-3.76120011569356,-6.48074069840786,-3.47602664488645,"1.2"
"5c8fcb13dd3b360015b4dff6_dvbq9",30,"Male","Master","Portugal","Caucasian","05/08/2022","10:22:53",35.4983,0.168583333333333,"2195x1084",2.37938,61.28,"chrome","103.0.0","Desktop","Windows 10","Müller-Lyer",1,1,73,"MullerLyer_str14.0_diff-0.1458",14,"-1",0.14575,"arrowup",1,711,638,0.136059444407096,0.381772183376421,0.5263,2.70805020110221,3.74165738677394,2.41014226417523,"1.2"
"5c8fcb13dd3b360015b4dff6_dvbq9",30,"Male","Master","Portugal","Caucasian","05/08/2022","10:22:53",35.4983,0.168583333333333,"2195x1084",2.37938,61.28,"chrome","103.0.0","Desktop","Windows 10","Müller-Lyer",1,1,74,"MullerLyer_str0.0_diff-0.0656",0,"-1",0.06565,"arrowdown",0,857,1034,0.0635849416251106,0.256222559506379,0.4034,0,0,0,"1.2"
"5c8fcb13dd3b360015b4dff6_dvbq9",30,"Male","Master","Portugal","Caucasian","05/08/2022","10:22:53",35.4983,0.168583333333333,"2195x1084",2.37938,61.28,"chrome","103.0.0","Desktop","Windows 10","Müller-Lyer",1,1,75,"MullerLyer_str28.0_diff-0.46",28,"-1",0.46,"arrowdown",0,990,810,0.378436435720245,0.678232998312527,0.7719,3.36729582998647,5.29150262212918,3.03658897187566,"1.2"
"5c8fcb13dd3b360015b4dff6_dvbq9",30,"Male","Master","Portugal","Caucasian","05/08/2022","10:22:53",35.4983,0.168583333333333,"2195x1084",2.37938,61.28,"chrome","103.0.0","Desktop","Windows 10","Müller-Lyer",1,1,76,"MullerLyer_str-14.0_diff-0.46",-14,"-1",0.46,"arrowdown",0,675,519,0.378436435720245,0.678232998312527,0.7719,-2.70805020110221,-3.74165738677394,-2.41014226417523,"1.2"
"5c8fcb13dd3b360015b4dff6_dvbq9",30,"Male","Master","Portugal","Caucasian","05/08/2022","10:22:53",35.4983,0.168583333333333,"2195x1084",2.37938,61.28,"chrome","103.0.0","Desktop","Windows 10","Müller-Lyer",1,1,77,"MullerLyer_str0.0_diff0.0656",0,"1",0.06565,"arrowup",0,899,597,0.0635849416251106,0.256222559506379,0.4034,0,0,0,"1.2"
"5c8fcb13dd3b360015b4dff6_dvbq9",30,"Male","Master","Portugal","Caucasian","05/08/2022","10:22:53",35.4983,0.168583333333333,"2195x1084",2.37938,61.28,"chrome","103.0.0","Desktop","Windows 10","Müller-Lyer",1,1,78,"MullerLyer_str-42.0_diff-0.46",-42,"-1",0.46,"arrowdown",0,952,450,0.378436435720245,0.678232998312527,0.7719,-3.76120011569356,-6.48074069840786,-3.47602664488645,"1.2"
"5c8fcb13dd3b360015b4dff6_dvbq9",30,"Male","Master","Portugal","Caucasian","05/08/2022","10:22:53",35.4983,0.168583333333333,"2195x1084",2.37938,61.28,"chrome","103.0.0","Desktop","Windows 10","Müller-Lyer",1,1,79,"MullerLyer_str-28.0_diff-0.0656",-28,"-1",0.06565,"arrowdown",0,824,451,0.0635849416251106,0.256222559506379,0.4034,-3.36729582998647,-5.29150262212918,-3.03658897187566,"1.2"
"5c8fcb13dd3b360015b4dff6_dvbq9",30,"Male","Master","Portugal","Caucasian","05/08/2022","10:22:53",35.4983,0.168583333333333,"2195x1084",2.37938,61.28,"chrome","103.0.0","Desktop","Windows 10","Müller-Lyer",1,1,80,"MullerLyer_str0.0_diff-0.46",0,"-1",0.46,"arrowdown",0,750,458,0.378436435720245,0.678232998312527,0.7719,0,0,0,"1.2"
"5c8fcb13dd3b360015b4dff6_dvbq9",30,"Male","Master","Portugal","Caucasian","05/08/2022","10:22:53",35.4983,0.168583333333333,"2195x1084",2.37938,61.28,"chrome","103.0.0","Desktop","Windows 10","Müller-Lyer",1,1,81,"MullerLyer_str42.0_diff-0.1458",42,"-1",0.14575,"arrowup",1,930,466,0.136059444407096,0.381772183376421,0.5263,3.76120011569356,6.48074069840786,3.47602664488645,"1.2"
"5c8fcb13dd3b360015b4dff6_dvbq9",30,"Male","Master","Portugal","Caucasian","05/08/2022","10:22:53",35.4983,0.168583333333333,"2195x1084",2.37938,61.28,"chrome","103.0.0","Desktop","Windows 10","Müller-Lyer",1,1,82,"MullerLyer_str-28.0_diff0.2735",-28,"1",0.27349,"arrowup",0,620,408,0.241761163031201,0.52296271377604,0.6491,-3.36729582998647,-5.29150262212918,-3.03658897187566,"1.2"
"5c8fcb13dd3b360015b4dff6_dvbq9",30,"Male","Master","Portugal","Caucasian","05/08/2022","10:22:53",35.4983,0.168583333333333,"2195x1084",2.37938,61.28,"chrome","103.0.0","Desktop","Windows 10","Müller-Lyer",1,1,83,"MullerLyer_str-42.0_diff-0.0656",-42,"-1",0.06565,"arrowdown",0,887,418,0.0635849416251106,0.256222559506379,0.4034,-3.76120011569356,-6.48074069840786,-3.47602664488645,"1.2"
"5c8fcb13dd3b360015b4dff6_dvbq9",30,"Male","Master","Portugal","Caucasian","05/08/2022","10:22:53",35.4983,0.168583333333333,"2195x1084",2.37938,61.28,"chrome","103.0.0","Desktop","Windows 10","Müller-Lyer",1,1,84,"MullerLyer_str-42.0_diff0.46",-42,"1",0.46,"arrowup",0,650,412,0.378436435720245,0.678232998312527,0.7719,-3.76120011569356,-6.48074069840786,-3.47602664488645,"1.2"
"5c8fcb13dd3b360015b4dff6_dvbq9",30,"Male","Master","Portugal","Caucasian","05/08/2022","10:22:53",35.4983,0.168583333333333,"2195x1084",2.37938,61.28,"chrome","103.0.0","Desktop","Windows 10","Müller-Lyer",1,1,85,"MullerLyer_str28.0_diff-0.1458",28,"-1",0.14575,"arrowup",1,834,586,0.136059444407096,0.381772183376421,0.5263,3.36729582998647,5.29150262212918,3.03658897187566,"1.2"
"5c8fcb13dd3b360015b4dff6_dvbq9",30,"Male","Master","Portugal","Caucasian","05/08/2022","10:22:53",35.4983,0.168583333333333,"2195x1084",2.37938,61.28,"chrome","103.0.0","Desktop","Windows 10","Müller-Lyer",1,1,86,"MullerLyer_str-42.0_diff-0.2735",-42,"-1",0.27349,"arrowdown",0,976,409,0.241761163031201,0.52296271377604,0.6491,-3.76120011569356,-6.48074069840786,-3.47602664488645,"1.2"
"5c8fcb13dd3b360015b4dff6_dvbq9",30,"Male","Master","Portugal","Caucasian","05/08/2022","10:22:53",35.4983,0.168583333333333,"2195x1084",2.37938,61.28,"chrome","103.0.0","Desktop","Windows 10","Müller-Lyer",1,1,87,"MullerLyer_str-42.0_diff0.0656",-42,"1",0.06565,"arrowup",0,689,450,0.0635849416251106,0.256222559506379,0.4034,-3.76120011569356,-6.48074069840786,-3.47602664488645,"1.2"
"5c8fcb13dd3b360015b4dff6_dvbq9",30,"Male","Master","Portugal","Caucasian","05/08/2022","10:22:53",35.4983,0.168583333333333,"2195x1084",2.37938,61.28,"chrome","103.0.0","Desktop","Windows 10","Müller-Lyer",1,1,88,"MullerLyer_str28.0_diff0.1458",28,"1",0.14575,"arrowdown",1,711,447,0.136059444407096,0.381772183376421,0.5263,3.36729582998647,5.29150262212918,3.03658897187566,"1.2"
"5c8fcb13dd3b360015b4dff6_dvbq9",30,"Male","Master","Portugal","Caucasian","05/08/2022","10:22:53",35.4983,0.168583333333333,"2195x1084",2.37938,61.28,"chrome","103.0.0","Desktop","Windows 10","Müller-Lyer",1,1,89,"MullerLyer_str28.0_diff0.46",28,"1",0.46,"arrowup",0,737,491,0.378436435720245,0.678232998312527,0.7719,3.36729582998647,5.29150262212918,3.03658897187566,"1.2"
"5c8fcb13dd3b360015b4dff6_dvbq9",30,"Male","Master","Portugal","Caucasian","05/08/2022","10:22:53",35.4983,0.168583333333333,"2195x1084",2.37938,61.28,"chrome","103.0.0","Desktop","Windows 10","Müller-Lyer",1,1,90,"MullerLyer_str14.0_diff0.0656",14,"1",0.06565,"arrowdown",1,814,498,0.0635849416251106,0.256222559506379,0.4034,2.70805020110221,3.74165738677394,2.41014226417523,"1.2"
"5c8fcb13dd3b360015b4dff6_dvbq9",30,"Male","Master","Portugal","Caucasian","05/08/2022","10:22:53",35.4983,0.168583333333333,"2195x1084",2.37938,61.28,"chrome","103.0.0","Desktop","Windows 10","Müller-Lyer",1,1,91,"MullerLyer_str-42.0_diff0.1458",-42,"1",0.14575,"arrowup",0,994,437,0.136059444407096,0.381772183376421,0.5263,-3.76120011569356,-6.48074069840786,-3.47602664488645,"1.2"
"5c8fcb13dd3b360015b4dff6_dvbq9",30,"Male","Master","Portugal","Caucasian","05/08/2022","10:22:53",35.4983,0.168583333333333,"2195x1084",2.37938,61.28,"chrome","103.0.0","Desktop","Windows 10","Müller-Lyer",1,1,92,"MullerLyer_str-28.0_diff-0.1458",-28,"-1",0.14575,"arrowdown",0,520,479,0.136059444407096,0.381772183376421,0.5263,-3.36729582998647,-5.29150262212918,-3.03658897187566,"1.2"
"5c8fcb13dd3b360015b4dff6_dvbq9",30,"Male","Master","Portugal","Caucasian","05/08/2022","10:22:53",35.4983,0.168583333333333,"2195x1084",2.37938,61.28,"chrome","103.0.0","Desktop","Windows 10","Müller-Lyer",1,1,93,"MullerLyer_str0.0_diff0.1458",0,"1",0.14575,"arrowup",0,743,540,0.136059444407096,0.381772183376421,0.5263,0,0,0,"1.2"
"5c8fcb13dd3b360015b4dff6_dvbq9",30,"Male","Master","Portugal","Caucasian","05/08/2022","10:22:53",35.4983,0.168583333333333,"2195x1084",2.37938,61.28,"chrome","103.0.0","Desktop","Windows 10","Müller-Lyer",1,1,94,"MullerLyer_str-14.0_diff0.0656",-14,"1",0.06565,"arrowup",0,731,451,0.0635849416251106,0.256222559506379,0.4034,-2.70805020110221,-3.74165738677394,-2.41014226417523,"1.2"
"5c8fcb13dd3b360015b4dff6_dvbq9",30,"Male","Master","Portugal","Caucasian","05/08/2022","10:22:53",35.4983,0.168583333333333,"2195x1084",2.37938,61.28,"chrome","103.0.0","Desktop","Windows 10","Müller-Lyer",1,1,95,"MullerLyer_str28.0_diff-0.2735",28,"-1",0.27349,"arrowup",1,599,424,0.241761163031201,0.52296271377604,0.6491,3.36729582998647,5.29150262212918,3.03658897187566,"1.2"
"5c8fcb13dd3b360015b4dff6_dvbq9",30,"Male","Master","Portugal","Caucasian","05/08/2022","10:22:53",35.4983,0.168583333333333,"2195x1084",2.37938,61.28,"chrome","103.0.0","Desktop","Windows 10","Müller-Lyer",1,1,96,"MullerLyer_str-14.0_diff-0.0656",-14,"-1",0.06565,"arrowdown",0,956,527,0.0635849416251106,0.256222559506379,0.4034,-2.70805020110221,-3.74165738677394,-2.41014226417523,"1.2"
"5c8fcb13dd3b360015b4dff6_dvbq9",30,"Male","Master","Portugal","Caucasian","05/08/2022","10:22:53",35.4983,0.168583333333333,"2195x1084",2.37938,61.28,"chrome","103.0.0","Desktop","Windows 10","Müller-Lyer",1,1,97,"MullerLyer_str-14.0_diff-0.2735",-14,"-1",0.27349,"arrowdown",0,890,453,0.241761163031201,0.52296271377604,0.6491,-2.70805020110221,-3.74165738677394,-2.41014226417523,"1.2"
"5c8fcb13dd3b360015b4dff6_dvbq9",30,"Male","Master","Portugal","Caucasian","05/08/2022","10:22:53",35.4983,0.168583333333333,"2195x1084",2.37938,61.28,"chrome","103.0.0","Desktop","Windows 10","Müller-Lyer",1,1,98,"MullerLyer_str14.0_diff0.2735",14,"1",0.27349,"arrowup",0,537,580,0.241761163031201,0.52296271377604,0.6491,2.70805020110221,3.74165738677394,2.41014226417523,"1.2"
"5c8fcb13dd3b360015b4dff6_dvbq9",30,"Male","Master","Portugal","Caucasian","05/08/2022","10:22:53",35.4983,0.168583333333333,"2195x1084",2.37938,61.28,"chrome","103.0.0","Desktop","Windows 10","Müller-Lyer",1,1,99,"MullerLyer_str42.0_diff-0.2735",42,"-1",0.27349,"arrowup",1,896,355,0.241761163031201,0.52296271377604,0.6491,3.76120011569356,6.48074069840786,3.47602664488645,"1.2"
"5c8fcb13dd3b360015b4dff6_dvbq9",30,"Male","Master","Portugal","Caucasian","05/08/2022","10:22:53",35.4983,0.168583333333333,"2195x1084",2.37938,61.28,"chrome","103.0.0","Desktop","Windows 10","Müller-Lyer",1,1,100,"MullerLyer_str-14.0_diff0.2735",-14,"1",0.27349,"arrowup",0,958,312,0.241761163031201,0.52296271377604,0.6491,-2.70805020110221,-3.74165738677394,-2.41014226417523,"1.2"
"5c8fcb13dd3b360015b4dff6_dvbq9",30,"Male","Master","Portugal","Caucasian","05/08/2022","10:22:53",35.4983,0.168583333333333,"2195x1084",2.37938,61.28,"chrome","103.0.0","Desktop","Windows 10","Müller-Lyer",1,1,101,"MullerLyer_str14.0_diff-0.2735",14,"-1",0.27349,"arrowdown",0,535,587,0.241761163031201,0.52296271377604,0.6491,2.70805020110221,3.74165738677394,2.41014226417523,"1.2"
"5c8fcb13dd3b360015b4dff6_dvbq9",30,"Male","Master","Portugal","Caucasian","05/08/2022","10:22:53",35.4983,0.168583333333333,"2195x1084",2.37938,61.28,"chrome","103.0.0","Desktop","Windows 10","Müller-Lyer",1,1,102,"MullerLyer_str42.0_diff0.46",42,"1",0.46,"arrowup",0,594,838,0.378436435720245,0.678232998312527,0.7719,3.76120011569356,6.48074069840786,3.47602664488645,"1.2"
"5c8fcb13dd3b360015b4dff6_dvbq9",30,"Male","Master","Portugal","Caucasian","05/08/2022","10:22:53",35.4983,0.168583333333333,"2195x1084",2.37938,61.28,"chrome","103.0.0","Desktop","Windows 10","Müller-Lyer",1,1,103,"MullerLyer_str-28.0_diff0.46",-28,"1",0.46,"arrowup",0,977,492,0.378436435720245,0.678232998312527,0.7719,-3.36729582998647,-5.29150262212918,-3.03658897187566,"1.2"
"5c8fcb13dd3b360015b4dff6_dvbq9",30,"Male","Master","Portugal","Caucasian","05/08/2022","10:22:53",35.4983,0.168583333333333,"2195x1084",2.37938,61.28,"chrome","103.0.0","Desktop","Windows 10","Müller-Lyer",1,1,104,"MullerLyer_str14.0_diff-0.46",14,"-1",0.46,"arrowdown",0,813,494,0.378436435720245,0.678232998312527,0.7719,2.70805020110221,3.74165738677394,2.41014226417523,"1.2"
"5c8fcb13dd3b360015b4dff6_dvbq9",30,"Male","Master","Portugal","Caucasian","05/08/2022","10:22:53",35.4983,0.168583333333333,"2195x1084",2.37938,61.28,"chrome","103.0.0","Desktop","Windows 10","Müller-Lyer",1,1,105,"MullerLyer_str14.0_diff0.1458",14,"1",0.14575,"arrowdown",1,935,479,0.136059444407096,0.381772183376421,0.5263,2.70805020110221,3.74165738677394,2.41014226417523,"1.2"
"5c8fcb13dd3b360015b4dff6_dvbq9",30,"Male","Master","Portugal","Caucasian","05/08/2022","10:22:53",35.4983,0.168583333333333,"2195x1084",2.37938,61.28,"chrome","103.0.0","Desktop","Windows 10","Müller-Lyer",1,1,106,"MullerLyer_str-28.0_diff-0.46",-28,"-1",0.46,"arrowdown",0,987,527,0.378436435720245,0.678232998312527,0.7719,-3.36729582998647,-5.29150262212918,-3.03658897187566,"1.2"
"5c8fcb13dd3b360015b4dff6_dvbq9",30,"Male","Master","Portugal","Caucasian","05/08/2022","10:22:53",35.4983,0.168583333333333,"2195x1084",2.37938,61.28,"chrome","103.0.0","Desktop","Windows 10","Müller-Lyer",1,1,107,"MullerLyer_str42.0_diff0.1458",42,"1",0.14575,"arrowdown",1,835,487,0.136059444407096,0.381772183376421,0.5263,3.76120011569356,6.48074069840786,3.47602664488645,"1.2"
"5c8fcb13dd3b360015b4dff6_dvbq9",30,"Male","Master","Portugal","Caucasian","05/08/2022","10:22:53",35.4983,0.168583333333333,"2195x1084",2.37938,61.28,"chrome","103.0.0","Desktop","Windows 10","Müller-Lyer",1,1,108,"MullerLyer_str42.0_diff-0.46",42,"-1",0.46,"arrowdown",0,756,1305,0.378436435720245,0.678232998312527,0.7719,3.76120011569356,6.48074069840786,3.47602664488645,"1.2"
"5c8fcb13dd3b360015b4dff6_dvbq9",30,"Male","Master","Portugal","Caucasian","05/08/2022","10:22:53",35.4983,0.168583333333333,"2195x1084",2.37938,61.28,"chrome","103.0.0","Desktop","Windows 10","Müller-Lyer",1,1,109,"MullerLyer_str14.0_diff-0.0656",14,"-1",0.06565,"arrowup",1,549,854,0.0635849416251106,0.256222559506379,0.4034,2.70805020110221,3.74165738677394,2.41014226417523,"1.2"
"5c8fcb13dd3b360015b4dff6_dvbq9",30,"Male","Master","Portugal","Caucasian","05/08/2022","10:22:53",35.4983,0.168583333333333,"2195x1084",2.37938,61.28,"chrome","103.0.0","Desktop","Windows 10","Müller-Lyer",1,1,110,"MullerLyer_str28.0_diff-0.0656",28,"-1",0.06565,"arrowup",1,838,611,0.0635849416251106,0.256222559506379,0.4034,3.36729582998647,5.29150262212918,3.03658897187566,"1.2"
"5c8fcb13dd3b360015b4dff6_dvbq9",30,"Male","Master","Portugal","Caucasian","05/08/2022","10:22:53",35.4983,0.168583333333333,"2195x1084",2.37938,61.28,"chrome","103.0.0","Desktop","Windows 10","Müller-Lyer",1,1,111,"MullerLyer_str-28.0_diff-0.2735",-28,"-1",0.27349,"arrowdown",0,649,522,0.241761163031201,0.52296271377604,0.6491,-3.36729582998647,-5.29150262212918,-3.03658897187566,"1.2"
"5c8fcb13dd3b360015b4dff6_dvbq9",30,"Male","Master","Portugal","Caucasian","05/08/2022","10:22:53",35.4983,0.168583333333333,"2195x1084",2.37938,61.28,"chrome","103.0.0","Desktop","Windows 10","Müller-Lyer",1,1,112,"MullerLyer_str-42.0_diff0.2735",-42,"1",0.27349,"arrowup",0,672,500,0.241761163031201,0.52296271377604,0.6491,-3.76120011569356,-6.48074069840786,-3.47602664488645,"1.2"
"5c8fcb13dd3b360015b4dff6_dvbq9",30,"Male","Master","Portugal","Caucasian","05/08/2022","10:22:53",35.4983,0.168583333333333,"2195x1084",2.37938,61.28,"chrome","103.0.0","Desktop","Windows 10","Müller-Lyer",1,1,113,"MullerLyer_str-28.0_diff0.0656",-28,"1",0.06565,"arrowup",0,735,469,0.0635849416251106,0.256222559506379,0.4034,-3.36729582998647,-5.29150262212918,-3.03658897187566,"1.2"
"5c8fcb13dd3b360015b4dff6_dvbq9",30,"Male","Master","Portugal","Caucasian","05/08/2022","10:22:53",35.4983,0.168583333333333,"2195x1084",2.37938,61.28,"chrome","103.0.0","Desktop","Windows 10","Müller-Lyer",1,1,114,"MullerLyer_str42.0_diff0.2735",42,"1",0.27349,"arrowdown",1,868,457,0.241761163031201,0.52296271377604,0.6491,3.76120011569356,6.48074069840786,3.47602664488645,"1.2"
"5c8fcb13dd3b360015b4dff6_dvbq9",30,"Male","Master","Portugal","Caucasian","05/08/2022","10:22:53",35.4983,0.168583333333333,"2195x1084",2.37938,61.28,"chrome","103.0.0","Desktop","Windows 10","Müller-Lyer",1,1,115,"MullerLyer_str28.0_diff0.0656",28,"1",0.06565,"arrowup",0,827,844,0.0635849416251106,0.256222559506379,0.4034,3.36729582998647,5.29150262212918,3.03658897187566,"1.2"
"5c8fcb13dd3b360015b4dff6_dvbq9",30,"Male","Master","Portugal","Caucasian","05/08/2022","10:22:53",35.4983,0.168583333333333,"2195x1084",2.37938,61.28,"chrome","103.0.0","Desktop","Windows 10","Müller-Lyer",1,1,116,"MullerLyer_str42.0_diff0.0656",42,"1",0.06565,"arrowdown",1,798,955,0.0635849416251106,0.256222559506379,0.4034,3.76120011569356,6.48074069840786,3.47602664488645,"1.2"
"5c8fcb13dd3b360015b4dff6_dvbq9",30,"Male","Master","Portugal","Caucasian","05/08/2022","10:22:53",35.4983,0.168583333333333,"2195x1084",2.37938,61.28,"chrome","103.0.0","Desktop","Windows 10","Delboeuf",1,2,1,"Delboeuf_str1.86_diff-0.1107",1.86,"-1",0.11066,"arrowleft",1,606,749,0.104954433217512,0.332655978452214,0.4801,1.05082162483176,1.36381816969859,1.2298089464641,"1.2"
"5c8fcb13dd3b360015b4dff6_dvbq9",30,"Male","Master","Portugal","Caucasian","05/08/2022","10:22:53",35.4983,0.168583333333333,"2195x1084",2.37938,61.28,"chrome","103.0.0","Desktop","Windows 10","Delboeuf",1,2,2,"Delboeuf_str0.0_diff-0.4252",0,"-1",0.4252,"arrowright",0,703,823,0.354312154749544,0.652073615476044,0.752,0,0,0,"1.2"
"5c8fcb13dd3b360015b4dff6_dvbq9",30,"Male","Master","Portugal","Caucasian","05/08/2022","10:22:53",35.4983,0.168583333333333,"2195x1084",2.37938,61.28,"chrome","103.0.0","Desktop","Windows 10","Delboeuf",1,2,3,"Delboeuf_str-1.24_diff-0.1107",-1.24,"-1",0.11066,"arrowright",0,601,862,0.104954433217512,0.332655978452214,0.4801,-0.806475865866949,-1.113552872566,-1.07433707098897,"1.2"
"5c8fcb13dd3b360015b4dff6_dvbq9",30,"Male","Master","Portugal","Caucasian","05/08/2022","10:22:53",35.4983,0.168583333333333,"2195x1084",2.37938,61.28,"chrome","103.0.0","Desktop","Windows 10","Delboeuf",1,2,4,"Delboeuf_str0.62_diff0.1107",0.62,"1",0.11066,"arrowright",1,628,993,0.104954433217512,0.332655978452214,0.4801,0.482426149244293,0.787400787401181,0.85270189832816,"1.2"
"5c8fcb13dd3b360015b4dff6_dvbq9",30,"Male","Master","Portugal","Caucasian","05/08/2022","10:22:53",35.4983,0.168583333333333,"2195x1084",2.37938,61.28,"chrome","103.0.0","Desktop","Windows 10","Delboeuf",1,2,5,"Delboeuf_str0.0_diff-0.1107",0,"-1",0.11066,"arrowright",0,843,938,0.104954433217512,0.332655978452214,0.4801,0,0,0,"1.2"
"5c8fcb13dd3b360015b4dff6_dvbq9",30,"Male","Master","Portugal","Caucasian","05/08/2022","10:22:53",35.4983,0.168583333333333,"2195x1084",2.37938,61.28,"chrome","103.0.0","Desktop","Windows 10","Delboeuf",1,2,6,"Delboeuf_str-1.86_diff0.1107",-1.86,"1",0.11066,"arrowleft",0,615,734,0.104954433217512,0.332655978452214,0.4801,-1.05082162483176,-1.36381816969859,-1.2298089464641,"1.2"
"5c8fcb13dd3b360015b4dff6_dvbq9",30,"Male","Master","Portugal","Caucasian","05/08/2022","10:22:53",35.4983,0.168583333333333,"2195x1084",2.37938,61.28,"chrome","103.0.0","Desktop","Windows 10","Delboeuf",1,2,7,"Delboeuf_str0.62_diff-0.4252",0.62,"-1",0.4252,"arrowright",0,529,910,0.354312154749544,0.652073615476044,0.752,0.482426149244293,0.787400787401181,0.85270189832816,"1.2"
"5c8fcb13dd3b360015b4dff6_dvbq9",30,"Male","Master","Portugal","Caucasian","05/08/2022","10:22:53",35.4983,0.168583333333333,"2195x1084",2.37938,61.28,"chrome","103.0.0","Desktop","Windows 10","Delboeuf",1,2,8,"Delboeuf_str-1.86_diff0.2338",-1.86,"1",0.23378,"arrowleft",0,912,588,0.210082627579345,0.483508014411344,0.616,-1.05082162483176,-1.36381816969859,-1.2298089464641,"1.2"
"5c8fcb13dd3b360015b4dff6_dvbq9",30,"Male","Master","Portugal","Caucasian","05/08/2022","10:22:53",35.4983,0.168583333333333,"2195x1084",2.37938,61.28,"chrome","103.0.0","Desktop","Windows 10","Delboeuf",1,2,9,"Delboeuf_str1.24_diff0.4252",1.24,"1",0.4252,"arrowleft",0,788,938,0.354312154749544,0.652073615476044,0.752,0.806475865866949,1.113552872566,1.07433707098897,"1.2"
"5c8fcb13dd3b360015b4dff6_dvbq9",30,"Male","Master","Portugal","Caucasian","05/08/2022","10:22:53",35.4983,0.168583333333333,"2195x1084",2.37938,61.28,"chrome","103.0.0","Desktop","Windows 10","Delboeuf",1,2,10,"Delboeuf_str1.86_diff-0.4252",1.86,"-1",0.4252,"arrowleft",1,535,1330,0.354312154749544,0.652073615476044,0.752,1.05082162483176,1.36381816969859,1.2298089464641,"1.2"
"5c8fcb13dd3b360015b4dff6_dvbq9",30,"Male","Master","Portugal","Caucasian","05/08/2022","10:22:53",35.4983,0.168583333333333,"2195x1084",2.37938,61.28,"chrome","103.0.0","Desktop","Windows 10","Delboeuf",1,2,11,"Delboeuf_str0.0_diff0.7",0,"1",0.7,"arrowleft",0,868,750,0.53062825106217,0.836660026534076,0.8879,0,0,0,"1.2"
"5c8fcb13dd3b360015b4dff6_dvbq9",30,"Male","Master","Portugal","Caucasian","05/08/2022","10:22:53",35.4983,0.168583333333333,"2195x1084",2.37938,61.28,"chrome","103.0.0","Desktop","Windows 10","Delboeuf",1,2,12,"Delboeuf_str1.86_diff-0.7",1.86,"-1",0.7,"arrowright",0,638,850,0.53062825106217,0.836660026534076,0.8879,1.05082162483176,1.36381816969859,1.2298089464641,"1.2"
"5c8fcb13dd3b360015b4dff6_dvbq9",30,"Male","Master","Portugal","Caucasian","05/08/2022","10:22:53",35.4983,0.168583333333333,"2195x1084",2.37938,61.28,"chrome","103.0.0","Desktop","Windows 10","Delboeuf",1,2,13,"Delboeuf_str0.0_diff0.4252",0,"1",0.4252,"arrowleft",0,664,520,0.354312154749544,0.652073615476044,0.752,0,0,0,"1.2"
"5c8fcb13dd3b360015b4dff6_dvbq9",30,"Male","Master","Portugal","Caucasian","05/08/2022","10:22:53",35.4983,0.168583333333333,"2195x1084",2.37938,61.28,"chrome","103.0.0","Desktop","Windows 10","Delboeuf",1,2,14,"Delboeuf_str-1.24_diff0.2338",-1.24,"1",0.23378,"arrowleft",0,629,642,0.210082627579345,0.483508014411344,0.616,-0.806475865866949,-1.113552872566,-1.07433707098897,"1.2"
"5c8fcb13dd3b360015b4dff6_dvbq9",30,"Male","Master","Portugal","Caucasian","05/08/2022","10:22:53",35.4983,0.168583333333333,"2195x1084",2.37938,61.28,"chrome","103.0.0","Desktop","Windows 10","Delboeuf",1,2,15,"Delboeuf_str1.24_diff0.2338",1.24,"1",0.23378,"arrowleft",0,886,1253,0.210082627579345,0.483508014411344,0.616,0.806475865866949,1.113552872566,1.07433707098897,"1.2"
"5c8fcb13dd3b360015b4dff6_dvbq9",30,"Male","Master","Portugal","Caucasian","05/08/2022","10:22:53",35.4983,0.168583333333333,"2195x1084",2.37938,61.28,"chrome","103.0.0","Desktop","Windows 10","Delboeuf",1,2,16,"Delboeuf_str1.86_diff0.1107",1.86,"1",0.11066,"arrowleft",0,742,979,0.104954433217512,0.332655978452214,0.4801,1.05082162483176,1.36381816969859,1.2298089464641,"1.2"
"5c8fcb13dd3b360015b4dff6_dvbq9",30,"Male","Master","Portugal","Caucasian","05/08/2022","10:22:53",35.4983,0.168583333333333,"2195x1084",2.37938,61.28,"chrome","103.0.0","Desktop","Windows 10","Delboeuf",1,2,17,"Delboeuf_str0.62_diff0.4252",0.62,"1",0.4252,"arrowleft",0,584,584,0.354312154749544,0.652073615476044,0.752,0.482426149244293,0.787400787401181,0.85270189832816,"1.2"
"5c8fcb13dd3b360015b4dff6_dvbq9",30,"Male","Master","Portugal","Caucasian","05/08/2022","10:22:53",35.4983,0.168583333333333,"2195x1084",2.37938,61.28,"chrome","103.0.0","Desktop","Windows 10","Delboeuf",1,2,18,"Delboeuf_str1.24_diff-0.4252",1.24,"-1",0.4252,"arrowright",0,820,815,0.354312154749544,0.652073615476044,0.752,0.806475865866949,1.113552872566,1.07433707098897,"1.2"
"5c8fcb13dd3b360015b4dff6_dvbq9",30,"Male","Master","Portugal","Caucasian","05/08/2022","10:22:53",35.4983,0.168583333333333,"2195x1084",2.37938,61.28,"chrome","103.0.0","Desktop","Windows 10","Delboeuf",1,2,19,"Delboeuf_str1.24_diff-0.7",1.24,"-1",0.7,"arrowright",0,524,807,0.53062825106217,0.836660026534076,0.8879,0.806475865866949,1.113552872566,1.07433707098897,"1.2"
"5c8fcb13dd3b360015b4dff6_dvbq9",30,"Male","Master","Portugal","Caucasian","05/08/2022","10:22:53",35.4983,0.168583333333333,"2195x1084",2.37938,61.28,"chrome","103.0.0","Desktop","Windows 10","Delboeuf",1,2,20,"Delboeuf_str-1.86_diff0.4252",-1.86,"1",0.4252,"arrowleft",0,510,1016,0.354312154749544,0.652073615476044,0.752,-1.05082162483176,-1.36381816969859,-1.2298089464641,"1.2"
"5c8fcb13dd3b360015b4dff6_dvbq9",30,"Male","Master","Portugal","Caucasian","05/08/2022","10:22:53",35.4983,0.168583333333333,"2195x1084",2.37938,61.28,"chrome","103.0.0","Desktop","Windows 10","Delboeuf",1,2,21,"Delboeuf_str-0.62_diff0.1107",-0.62,"1",0.11066,"arrowleft",0,1000,737,0.104954433217512,0.332655978452214,0.4801,-0.482426149244293,-0.787400787401181,-0.85270189832816,"1.2"
"5c8fcb13dd3b360015b4dff6_dvbq9",30,"Male","Master","Portugal","Caucasian","05/08/2022","10:22:53",35.4983,0.168583333333333,"2195x1084",2.37938,61.28,"chrome","103.0.0","Desktop","Windows 10","Delboeuf",1,2,22,"Delboeuf_str1.24_diff-0.2338",1.24,"-1",0.23378,"arrowright",0,503,1018,0.210082627579345,0.483508014411344,0.616,0.806475865866949,1.113552872566,1.07433707098897,"1.2"
"5c8fcb13dd3b360015b4dff6_dvbq9",30,"Male","Master","Portugal","Caucasian","05/08/2022","10:22:53",35.4983,0.168583333333333,"2195x1084",2.37938,61.28,"chrome","103.0.0","Desktop","Windows 10","Delboeuf",1,2,23,"Delboeuf_str0.0_diff0.2338",0,"1",0.23378,"arrowleft",0,739,818,0.210082627579345,0.483508014411344,0.616,0,0,0,"1.2"
"5c8fcb13dd3b360015b4dff6_dvbq9",30,"Male","Master","Portugal","Caucasian","05/08/2022","10:22:53",35.4983,0.168583333333333,"2195x1084",2.37938,61.28,"chrome","103.0.0","Desktop","Windows 10","Delboeuf",1,2,24,"Delboeuf_str0.62_diff0.7",0.62,"1",0.7,"arrowleft",0,683,628,0.53062825106217,0.836660026534076,0.8879,0.482426149244293,0.787400787401181,0.85270189832816,"1.2"
"5c8fcb13dd3b360015b4dff6_dvbq9",30,"Male","Master","Portugal","Caucasian","05/08/2022","10:22:53",35.4983,0.168583333333333,"2195x1084",2.37938,61.28,"chrome","103.0.0","Desktop","Windows 10","Delboeuf",1,2,25,"Delboeuf_str0.62_diff-0.1107",0.62,"-1",0.11066,"arrowleft",1,531,1439,0.104954433217512,0.332655978452214,0.4801,0.482426149244293,0.787400787401181,0.85270189832816,"1.2"
"5c8fcb13dd3b360015b4dff6_dvbq9",30,"Male","Master","Portugal","Caucasian","05/08/2022","10:22:53",35.4983,0.168583333333333,"2195x1084",2.37938,61.28,"chrome","103.0.0","Desktop","Windows 10","Delboeuf",1,2,26,"Delboeuf_str-1.24_diff0.1107",-1.24,"1",0.11066,"arrowleft",0,672,566,0.104954433217512,0.332655978452214,0.4801,-0.806475865866949,-1.113552872566,-1.07433707098897,"1.2"
"5c8fcb13dd3b360015b4dff6_dvbq9",30,"Male","Master","Portugal","Caucasian","05/08/2022","10:22:53",35.4983,0.168583333333333,"2195x1084",2.37938,61.28,"chrome","103.0.0","Desktop","Windows 10","Delboeuf",1,2,27,"Delboeuf_str-1.86_diff-0.7",-1.86,"-1",0.7,"arrowright",0,967,645,0.53062825106217,0.836660026534076,0.8879,-1.05082162483176,-1.36381816969859,-1.2298089464641,"1.2"
"5c8fcb13dd3b360015b4dff6_dvbq9",30,"Male","Master","Portugal","Caucasian","05/08/2022","10:22:53",35.4983,0.168583333333333,"2195x1084",2.37938,61.28,"chrome","103.0.0","Desktop","Windows 10","Delboeuf",1,2,28,"Delboeuf_str-1.24_diff0.4252",-1.24,"1",0.4252,"arrowleft",0,535,603,0.354312154749544,0.652073615476044,0.752,-0.806475865866949,-1.113552872566,-1.07433707098897,"1.2"
"5c8fcb13dd3b360015b4dff6_dvbq9",30,"Male","Master","Portugal","Caucasian","05/08/2022","10:22:53",35.4983,0.168583333333333,"2195x1084",2.37938,61.28,"chrome","103.0.0","Desktop","Windows 10","Delboeuf",1,2,29,"Delboeuf_str0.0_diff-0.2338",0,"-1",0.23378,"arrowright",0,522,1055,0.210082627579345,0.483508014411344,0.616,0,0,0,"1.2"
"5c8fcb13dd3b360015b4dff6_dvbq9",30,"Male","Master","Portugal","Caucasian","05/08/2022","10:22:53",35.4983,0.168583333333333,"2195x1084",2.37938,61.28,"chrome","103.0.0","Desktop","Windows 10","Delboeuf",1,2,30,"Delboeuf_str0.62_diff-0.7",0.62,"-1",0.7,"arrowright",0,948,690,0.53062825106217,0.836660026534076,0.8879,0.482426149244293,0.787400787401181,0.85270189832816,"1.2"
"5c8fcb13dd3b360015b4dff6_dvbq9",30,"Male","Master","Portugal","Caucasian","05/08/2022","10:22:53",35.4983,0.168583333333333,"2195x1084",2.37938,61.28,"chrome","103.0.0","Desktop","Windows 10","Delboeuf",1,2,31,"Delboeuf_str1.86_diff-0.2338",1.86,"-1",0.23378,"arrowleft",1,858,580,0.210082627579345,0.483508014411344,0.616,1.05082162483176,1.36381816969859,1.2298089464641,"1.2"
"5c8fcb13dd3b360015b4dff6_dvbq9",30,"Male","Master","Portugal","Caucasian","05/08/2022","10:22:53",35.4983,0.168583333333333,"2195x1084",2.37938,61.28,"chrome","103.0.0","Desktop","Windows 10","Delboeuf",1,2,32,"Delboeuf_str-1.86_diff-0.1107",-1.86,"-1",0.11066,"arrowright",0,933,643,0.104954433217512,0.332655978452214,0.4801,-1.05082162483176,-1.36381816969859,-1.2298089464641,"1.2"
"5c8fcb13dd3b360015b4dff6_dvbq9",30,"Male","Master","Portugal","Caucasian","05/08/2022","10:22:53",35.4983,0.168583333333333,"2195x1084",2.37938,61.28,"chrome","103.0.0","Desktop","Windows 10","Delboeuf",1,2,33,"Delboeuf_str1.24_diff0.1107",1.24,"1",0.11066,"arrowright",1,792,882,0.104954433217512,0.332655978452214,0.4801,0.806475865866949,1.113552872566,1.07433707098897,"1.2"
"5c8fcb13dd3b360015b4dff6_dvbq9",30,"Male","Master","Portugal","Caucasian","05/08/2022","10:22:53",35.4983,0.168583333333333,"2195x1084",2.37938,61.28,"chrome","103.0.0","Desktop","Windows 10","Delboeuf",1,2,34,"Delboeuf_str0.62_diff-0.2338",0.62,"-1",0.23378,"arrowright",0,548,747,0.210082627579345,0.483508014411344,0.616,0.482426149244293,0.787400787401181,0.85270189832816,"1.2"
"5c8fcb13dd3b360015b4dff6_dvbq9",30,"Male","Master","Portugal","Caucasian","05/08/2022","10:22:53",35.4983,0.168583333333333,"2195x1084",2.37938,61.28,"chrome","103.0.0","Desktop","Windows 10","Delboeuf",1,2,35,"Delboeuf_str-0.62_diff-0.2338",-0.62,"-1",0.23378,"arrowright",0,907,540,0.210082627579345,0.483508014411344,0.616,-0.482426149244293,-0.787400787401181,-0.85270189832816,"1.2"
"5c8fcb13dd3b360015b4dff6_dvbq9",30,"Male","Master","Portugal","Caucasian","05/08/2022","10:22:53",35.4983,0.168583333333333,"2195x1084",2.37938,61.28,"chrome","103.0.0","Desktop","Windows 10","Delboeuf",1,2,36,"Delboeuf_str-0.62_diff0.2338",-0.62,"1",0.23378,"arrowleft",0,833,499,0.210082627579345,0.483508014411344,0.616,-0.482426149244293,-0.787400787401181,-0.85270189832816,"1.2"
"5c8fcb13dd3b360015b4dff6_dvbq9",30,"Male","Master","Portugal","Caucasian","05/08/2022","10:22:53",35.4983,0.168583333333333,"2195x1084",2.37938,61.28,"chrome","103.0.0","Desktop","Windows 10","Delboeuf",1,2,37,"Delboeuf_str-1.24_diff-0.2338",-1.24,"-1",0.23378,"arrowright",0,909,557,0.210082627579345,0.483508014411344,0.616,-0.806475865866949,-1.113552872566,-1.07433707098897,"1.2"
"5c8fcb13dd3b360015b4dff6_dvbq9",30,"Male","Master","Portugal","Caucasian","05/08/2022","10:22:53",35.4983,0.168583333333333,"2195x1084",2.37938,61.28,"chrome","103.0.0","Desktop","Windows 10","Delboeuf",1,2,38,"Delboeuf_str0.0_diff-0.7",0,"-1",0.7,"arrowright",0,679,545,0.53062825106217,0.836660026534076,0.8879,0,0,0,"1.2"
"5c8fcb13dd3b360015b4dff6_dvbq9",30,"Male","Master","Portugal","Caucasian","05/08/2022","10:22:53",35.4983,0.168583333333333,"2195x1084",2.37938,61.28,"chrome","103.0.0","Desktop","Windows 10","Delboeuf",1,2,39,"Delboeuf_str-1.86_diff-0.4252",-1.86,"-1",0.4252,"arrowright",0,783,557,0.354312154749544,0.652073615476044,0.752,-1.05082162483176,-1.36381816969859,-1.2298089464641,"1.2"
"5c8fcb13dd3b360015b4dff6_dvbq9",30,"Male","Master","Portugal","Caucasian","05/08/2022","10:22:53",35.4983,0.168583333333333,"2195x1084",2.37938,61.28,"chrome","103.0.0","Desktop","Windows 10","Delboeuf",1,2,40,"Delboeuf_str1.86_diff0.4252",1.86,"1",0.4252,"arrowleft",0,996,993,0.354312154749544,0.652073615476044,0.752,1.05082162483176,1.36381816969859,1.2298089464641,"1.2"
"5c8fcb13dd3b360015b4dff6_dvbq9",30,"Male","Master","Portugal","Caucasian","05/08/2022","10:22:53",35.4983,0.168583333333333,"2195x1084",2.37938,61.28,"chrome","103.0.0","Desktop","Windows 10","Delboeuf",1,2,41,"Delboeuf_str-0.62_diff-0.7",-0.62,"-1",0.7,"arrowright",0,904,470,0.53062825106217,0.836660026534076,0.8879,-0.482426149244293,-0.787400787401181,-0.85270189832816,"1.2"
"5c8fcb13dd3b360015b4dff6_dvbq9",30,"Male","Master","Portugal","Caucasian","05/08/2022","10:22:53",35.4983,0.168583333333333,"2195x1084",2.37938,61.28,"chrome","103.0.0","Desktop","Windows 10","Delboeuf",1,2,42,"Delboeuf_str1.86_diff0.7",1.86,"1",0.7,"arrowright",1,955,631,0.53062825106217,0.836660026534076,0.8879,1.05082162483176,1.36381816969859,1.2298089464641,"1.2"
"5c8fcb13dd3b360015b4dff6_dvbq9",30,"Male","Master","Portugal","Caucasian","05/08/2022","10:22:53",35.4983,0.168583333333333,"2195x1084",2.37938,61.28,"chrome","103.0.0","Desktop","Windows 10","Delboeuf",1,2,43,"Delboeuf_str-0.62_diff0.7",-0.62,"1",0.7,"arrowleft",0,651,574,0.53062825106217,0.836660026534076,0.8879,-0.482426149244293,-0.787400787401181,-0.85270189832816,"1.2"
"5c8fcb13dd3b360015b4dff6_dvbq9",30,"Male","Master","Portugal","Caucasian","05/08/2022","10:22:53",35.4983,0.168583333333333,"2195x1084",2.37938,61.28,"chrome","103.0.0","Desktop","Windows 10","Delboeuf",1,2,44,"Delboeuf_str0.0_diff0.1107",0,"1",0.11066,"arrowright",1,876,555,0.104954433217512,0.332655978452214,0.4801,0,0,0,"1.2"
"5c8fcb13dd3b360015b4dff6_dvbq9",30,"Male","Master","Portugal","Caucasian","05/08/2022","10:22:53",35.4983,0.168583333333333,"2195x1084",2.37938,61.28,"chrome","103.0.0","Desktop","Windows 10","Delboeuf",1,2,45,"Delboeuf_str-0.62_diff0.4252",-0.62,"1",0.4252,"arrowleft",0,892,496,0.354312154749544,0.652073615476044,0.752,-0.482426149244293,-0.787400787401181,-0.85270189832816,"1.2"
"5c8fcb13dd3b360015b4dff6_dvbq9",30,"Male","Master","Portugal","Caucasian","05/08/2022","10:22:53",35.4983,0.168583333333333,"2195x1084",2.37938,61.28,"chrome","103.0.0","Desktop","Windows 10","Delboeuf",1,2,46,"Delboeuf_str-0.62_diff-0.1107",-0.62,"-1",0.11066,"arrowright",0,775,459,0.104954433217512,0.332655978452214,0.4801,-0.482426149244293,-0.787400787401181,-0.85270189832816,"1.2"
"5c8fcb13dd3b360015b4dff6_dvbq9",30,"Male","Master","Portugal","Caucasian","05/08/2022","10:22:53",35.4983,0.168583333333333,"2195x1084",2.37938,61.28,"chrome","103.0.0","Desktop","Windows 10","Delboeuf",1,2,47,"Delboeuf_str-1.24_diff-0.7",-1.24,"-1",0.7,"arrowright",0,983,411,0.53062825106217,0.836660026534076,0.8879,-0.806475865866949,-1.113552872566,-1.07433707098897,"1.2"
"5c8fcb13dd3b360015b4dff6_dvbq9",30,"Male","Master","Portugal","Caucasian","05/08/2022","10:22:53",35.4983,0.168583333333333,"2195x1084",2.37938,61.28,"chrome","103.0.0","Desktop","Windows 10","Delboeuf",1,2,48,"Delboeuf_str1.24_diff-0.1107",1.24,"-1",0.11066,"arrowleft",1,963,533,0.104954433217512,0.332655978452214,0.4801,0.806475865866949,1.113552872566,1.07433707098897,"1.2"
"5c8fcb13dd3b360015b4dff6_dvbq9",30,"Male","Master","Portugal","Caucasian","05/08/2022","10:22:53",35.4983,0.168583333333333,"2195x1084",2.37938,61.28,"chrome","103.0.0","Desktop","Windows 10","Delboeuf",1,2,49,"Delboeuf_str0.62_diff0.2338",0.62,"1",0.23378,"arrowleft",0,772,764,0.210082627579345,0.483508014411344,0.616,0.482426149244293,0.787400787401181,0.85270189832816,"1.2"
"5c8fcb13dd3b360015b4dff6_dvbq9",30,"Male","Master","Portugal","Caucasian","05/08/2022","10:22:53",35.4983,0.168583333333333,"2195x1084",2.37938,61.28,"chrome","103.0.0","Desktop","Windows 10","Delboeuf",1,2,50,"Delboeuf_str-1.24_diff-0.4252",-1.24,"-1",0.4252,"arrowright",0,730,549,0.354312154749544,0.652073615476044,0.752,-0.806475865866949,-1.113552872566,-1.07433707098897,"1.2"
"5c8fcb13dd3b360015b4dff6_dvbq9",30,"Male","Master","Portugal","Caucasian","05/08/2022","10:22:53",35.4983,0.168583333333333,"2195x1084",2.37938,61.28,"chrome","103.0.0","Desktop","Windows 10","Delboeuf",1,2,51,"Delboeuf_str-1.86_diff-0.2338",-1.86,"-1",0.23378,"arrowright",0,988,552,0.210082627579345,0.483508014411344,0.616,-1.05082162483176,-1.36381816969859,-1.2298089464641,"1.2"
"5c8fcb13dd3b360015b4dff6_dvbq9",30,"Male","Master","Portugal","Caucasian","05/08/2022","10:22:53",35.4983,0.168583333333333,"2195x1084",2.37938,61.28,"chrome","103.0.0","Desktop","Windows 10","Delboeuf",1,2,52,"Delboeuf_str-0.62_diff-0.4252",-0.62,"-1",0.4252,"arrowright",0,592,567,0.354312154749544,0.652073615476044,0.752,-0.482426149244293,-0.787400787401181,-0.85270189832816,"1.2"
"5c8fcb13dd3b360015b4dff6_dvbq9",30,"Male","Master","Portugal","Caucasian","05/08/2022","10:22:53",35.4983,0.168583333333333,"2195x1084",2.37938,61.28,"chrome","103.0.0","Desktop","Windows 10","Delboeuf",1,2,53,"Delboeuf_str1.86_diff0.2338",1.86,"1",0.23378,"arrowright",1,622,615,0.210082627579345,0.483508014411344,0.616,1.05082162483176,1.36381816969859,1.2298089464641,"1.2"
"5c8fcb13dd3b360015b4dff6_dvbq9",30,"Male","Master","Portugal","Caucasian","05/08/2022","10:22:53",35.4983,0.168583333333333,"2195x1084",2.37938,61.28,"chrome","103.0.0","Desktop","Windows 10","Delboeuf",1,2,54,"Delboeuf_str1.24_diff0.7",1.24,"1",0.7,"arrowleft",0,668,985,0.53062825106217,0.836660026534076,0.8879,0.806475865866949,1.113552872566,1.07433707098897,"1.2"
"5c8fcb13dd3b360015b4dff6_dvbq9",30,"Male","Master","Portugal","Caucasian","05/08/2022","10:22:53",35.4983,0.168583333333333,"2195x1084",2.37938,61.28,"chrome","103.0.0","Desktop","Windows 10","Delboeuf",1,2,55,"Delboeuf_str-1.24_diff0.7",-1.24,"1",0.7,"arrowleft",0,922,580,0.53062825106217,0.836660026534076,0.8879,-0.806475865866949,-1.113552872566,-1.07433707098897,"1.2"
"5c8fcb13dd3b360015b4dff6_dvbq9",30,"Male","Master","Portugal","Caucasian","05/08/2022","10:22:53",35.4983,0.168583333333333,"2195x1084",2.37938,61.28,"chrome","103.0.0","Desktop","Windows 10","Delboeuf",1,2,56,"Delboeuf_str-1.86_diff0.7",-1.86,"1",0.7,"arrowleft",0,760,404,0.53062825106217,0.836660026534076,0.8879,-1.05082162483176,-1.36381816969859,-1.2298089464641,"1.2"
"5c8fcb13dd3b360015b4dff6_dvbq9",30,"Male","Master","Portugal","Caucasian","05/08/2022","10:22:53",35.4983,0.168583333333333,"2195x1084",2.37938,61.28,"chrome","103.0.0","Desktop","Windows 10","Poggendorff",1,3,1,"Poggendorff_str0.0_diff0.0354",0,"1",0.03538,"arrowup",0,971,1505,0.0347685090928065,0.188095720312824,0.3283,0,0,0,"1.2"
"5c8fcb13dd3b360015b4dff6_dvbq9",30,"Male","Master","Portugal","Caucasian","05/08/2022","10:22:53",35.4983,0.168583333333333,"2195x1084",2.37938,61.28,"chrome","103.0.0","Desktop","Windows 10","Poggendorff",1,3,2,"Poggendorff_str-38.4_diff-0.0354",-38.4,"-1",0.03538,"arrowdown",0,716,1288,0.0347685090928065,0.188095720312824,0.3283,-3.67376581630389,-6.19677335393187,-3.373730661207,"1.2"
"5c8fcb13dd3b360015b4dff6_dvbq9",30,"Male","Master","Portugal","Caucasian","05/08/2022","10:22:53",35.4983,0.168583333333333,"2195x1084",2.37938,61.28,"chrome","103.0.0","Desktop","Windows 10","Poggendorff",1,3,3,"Poggendorff_str-38.4_diff0.1716",-38.4,"1",0.17162,"arrowup",0,814,815,0.158387406498324,0.414270443068293,0.5557,-3.67376581630389,-6.19677335393187,-3.373730661207,"1.2"
"5c8fcb13dd3b360015b4dff6_dvbq9",30,"Male","Master","Portugal","Caucasian","05/08/2022","10:22:53",35.4983,0.168583333333333,"2195x1084",2.37938,61.28,"chrome","103.0.0","Desktop","Windows 10","Poggendorff",1,3,4,"Poggendorff_str-25.6_diff-0.1716",-25.6,"-1",0.17162,"arrowdown",0,836,555,0.158387406498324,0.414270443068293,0.5557,-3.28091121578765,-5.05964425626941,-2.94722519891231,"1.2"
"5c8fcb13dd3b360015b4dff6_dvbq9",30,"Male","Master","Portugal","Caucasian","05/08/2022","10:22:53",35.4983,0.168583333333333,"2195x1084",2.37938,61.28,"chrome","103.0.0","Desktop","Windows 10","Poggendorff",1,3,5,"Poggendorff_str38.4_diff-0.1716",38.4,"-1",0.17162,"arrowup",1,977,810,0.158387406498324,0.414270443068293,0.5557,3.67376581630389,6.19677335393187,3.373730661207,"1.2"
"5c8fcb13dd3b360015b4dff6_dvbq9",30,"Male","Master","Portugal","Caucasian","05/08/2022","10:22:53",35.4983,0.168583333333333,"2195x1084",2.37938,61.28,"chrome","103.0.0","Desktop","Windows 10","Poggendorff",1,3,6,"Poggendorff_str-25.6_diff-0.0864",-25.6,"-1",0.08636,"arrowdown",0,577,524,0.0828326582932122,0.293870719875254,0.442,-3.28091121578765,-5.05964425626941,-2.94722519891231,"1.2"
"5c8fcb13dd3b360015b4dff6_dvbq9",30,"Male","Master","Portugal","Caucasian","05/08/2022","10:22:53",35.4983,0.168583333333333,"2195x1084",2.37938,61.28,"chrome","103.0.0","Desktop","Windows 10","Poggendorff",1,3,7,"Poggendorff_str-38.4_diff-0.3",-38.4,"-1",0.3,"arrowdown",0,940,478,0.262364264467491,0.547722557505166,0.6694,-3.67376581630389,-6.19677335393187,-3.373730661207,"1.2"
"5c8fcb13dd3b360015b4dff6_dvbq9",30,"Male","Master","Portugal","Caucasian","05/08/2022","10:22:53",35.4983,0.168583333333333,"2195x1084",2.37938,61.28,"chrome","103.0.0","Desktop","Windows 10","Poggendorff",1,3,8,"Poggendorff_str12.8_diff0.0354",12.8,"1",0.03538,"arrowdown",1,652,1188,0.0347685090928065,0.188095720312824,0.3283,2.62466859216316,3.57770876399966,2.33921419057029,"1.2"
"5c8fcb13dd3b360015b4dff6_dvbq9",30,"Male","Master","Portugal","Caucasian","05/08/2022","10:22:53",35.4983,0.168583333333333,"2195x1084",2.37938,61.28,"chrome","103.0.0","Desktop","Windows 10","Poggendorff",1,3,9,"Poggendorff_str38.4_diff-0.3",38.4,"-1",0.3,"arrowup",1,888,584,0.262364264467491,0.547722557505166,0.6694,3.67376581630389,6.19677335393187,3.373730661207,"1.2"
"5c8fcb13dd3b360015b4dff6_dvbq9",30,"Male","Master","Portugal","Caucasian","05/08/2022","10:22:53",35.4983,0.168583333333333,"2195x1084",2.37938,61.28,"chrome","103.0.0","Desktop","Windows 10","Poggendorff",1,3,10,"Poggendorff_str12.8_diff-0.1716",12.8,"-1",0.17162,"arrowdown",0,801,1106,0.158387406498324,0.414270443068293,0.5557,2.62466859216316,3.57770876399966,2.33921419057029,"1.2"
"5c8fcb13dd3b360015b4dff6_dvbq9",30,"Male","Master","Portugal","Caucasian","05/08/2022","10:22:53",35.4983,0.168583333333333,"2195x1084",2.37938,61.28,"chrome","103.0.0","Desktop","Windows 10","Poggendorff",1,3,11,"Poggendorff_str12.8_diff-0.0354",12.8,"-1",0.03538,"arrowdown",0,644,1188,0.0347685090928065,0.188095720312824,0.3283,2.62466859216316,3.57770876399966,2.33921419057029,"1.2"
"5c8fcb13dd3b360015b4dff6_dvbq9",30,"Male","Master","Portugal","Caucasian","05/08/2022","10:22:53",35.4983,0.168583333333333,"2195x1084",2.37938,61.28,"chrome","103.0.0","Desktop","Windows 10","Poggendorff",1,3,12,"Poggendorff_str25.6_diff0.0864",25.6,"1",0.08636,"arrowdown",1,526,1219,0.0828326582932122,0.293870719875254,0.442,3.28091121578765,5.05964425626941,2.94722519891231,"1.2"
"5c8fcb13dd3b360015b4dff6_dvbq9",30,"Male","Master","Portugal","Caucasian","05/08/2022","10:22:53",35.4983,0.168583333333333,"2195x1084",2.37938,61.28,"chrome","103.0.0","Desktop","Windows 10","Poggendorff",1,3,13,"Poggendorff_str38.4_diff0.3",38.4,"1",0.3,"arrowdown",1,571,1132,0.262364264467491,0.547722557505166,0.6694,3.67376581630389,6.19677335393187,3.373730661207,"1.2"
"5c8fcb13dd3b360015b4dff6_dvbq9",30,"Male","Master","Portugal","Caucasian","05/08/2022","10:22:53",35.4983,0.168583333333333,"2195x1084",2.37938,61.28,"chrome","103.0.0","Desktop","Windows 10","Poggendorff",1,3,14,"Poggendorff_str12.8_diff0.3",12.8,"1",0.3,"arrowup",0,946,612,0.262364264467491,0.547722557505166,0.6694,2.62466859216316,3.57770876399966,2.33921419057029,"1.2"
"5c8fcb13dd3b360015b4dff6_dvbq9",30,"Male","Master","Portugal","Caucasian","05/08/2022","10:22:53",35.4983,0.168583333333333,"2195x1084",2.37938,61.28,"chrome","103.0.0","Desktop","Windows 10","Poggendorff",1,3,15,"Poggendorff_str25.6_diff-0.0864",25.6,"-1",0.08636,"arrowup",1,977,700,0.0828326582932122,0.293870719875254,0.442,3.28091121578765,5.05964425626941,2.94722519891231,"1.2"
"5c8fcb13dd3b360015b4dff6_dvbq9",30,"Male","Master","Portugal","Caucasian","05/08/2022","10:22:53",35.4983,0.168583333333333,"2195x1084",2.37938,61.28,"chrome","103.0.0","Desktop","Windows 10","Poggendorff",1,3,16,"Poggendorff_str12.8_diff0.0864",12.8,"1",0.08636,"arrowup",0,942,1235,0.0828326582932122,0.293870719875254,0.442,2.62466859216316,3.57770876399966,2.33921419057029,"1.2"
"5c8fcb13dd3b360015b4dff6_dvbq9",30,"Male","Master","Portugal","Caucasian","05/08/2022","10:22:53",35.4983,0.168583333333333,"2195x1084",2.37938,61.28,"chrome","103.0.0","Desktop","Windows 10","Poggendorff",1,3,17,"Poggendorff_str-25.6_diff0.0864",-25.6,"1",0.08636,"arrowup",0,523,630,0.0828326582932122,0.293870719875254,0.442,-3.28091121578765,-5.05964425626941,-2.94722519891231,"1.2"
"5c8fcb13dd3b360015b4dff6_dvbq9",30,"Male","Master","Portugal","Caucasian","05/08/2022","10:22:53",35.4983,0.168583333333333,"2195x1084",2.37938,61.28,"chrome","103.0.0","Desktop","Windows 10","Poggendorff",1,3,18,"Poggendorff_str-12.8_diff-0.0864",-12.8,"-1",0.08636,"arrowdown",0,824,966,0.0828326582932122,0.293870719875254,0.442,-2.62466859216316,-3.57770876399966,-2.33921419057029,"1.2"
"5c8fcb13dd3b360015b4dff6_dvbq9",30,"Male","Master","Portugal","Caucasian","05/08/2022","10:22:53",35.4983,0.168583333333333,"2195x1084",2.37938,61.28,"chrome","103.0.0","Desktop","Windows 10","Poggendorff",1,3,19,"Poggendorff_str-38.4_diff0.0864",-38.4,"1",0.08636,"arrowup",0,897,575,0.0828326582932122,0.293870719875254,0.442,-3.67376581630389,-6.19677335393187,-3.373730661207,"1.2"
"5c8fcb13dd3b360015b4dff6_dvbq9",30,"Male","Master","Portugal","Caucasian","05/08/2022","10:22:53",35.4983,0.168583333333333,"2195x1084",2.37938,61.28,"chrome","103.0.0","Desktop","Windows 10","Poggendorff",1,3,20,"Poggendorff_str-12.8_diff-0.3",-12.8,"-1",0.3,"arrowdown",0,528,930,0.262364264467491,0.547722557505166,0.6694,-2.62466859216316,-3.57770876399966,-2.33921419057029,"1.2"
"5c8fcb13dd3b360015b4dff6_dvbq9",30,"Male","Master","Portugal","Caucasian","05/08/2022","10:22:53",35.4983,0.168583333333333,"2195x1084",2.37938,61.28,"chrome","103.0.0","Desktop","Windows 10","Poggendorff",1,3,21,"Poggendorff_str0.0_diff-0.0864",0,"-1",0.08636,"arrowdown",0,766,557,0.0828326582932122,0.293870719875254,0.442,0,0,0,"1.2"
"5c8fcb13dd3b360015b4dff6_dvbq9",30,"Male","Master","Portugal","Caucasian","05/08/2022","10:22:53",35.4983,0.168583333333333,"2195x1084",2.37938,61.28,"chrome","103.0.0","Desktop","Windows 10","Poggendorff",1,3,22,"Poggendorff_str-12.8_diff0.3",-12.8,"1",0.3,"arrowup",0,728,612,0.262364264467491,0.547722557505166,0.6694,-2.62466859216316,-3.57770876399966,-2.33921419057029,"1.2"
"5c8fcb13dd3b360015b4dff6_dvbq9",30,"Male","Master","Portugal","Caucasian","05/08/2022","10:22:53",35.4983,0.168583333333333,"2195x1084",2.37938,61.28,"chrome","103.0.0","Desktop","Windows 10","Poggendorff",1,3,23,"Poggendorff_str25.6_diff-0.0354",25.6,"-1",0.03538,"arrowup",1,502,508,0.0347685090928065,0.188095720312824,0.3283,3.28091121578765,5.05964425626941,2.94722519891231,"1.2"
"5c8fcb13dd3b360015b4dff6_dvbq9",30,"Male","Master","Portugal","Caucasian","05/08/2022","10:22:53",35.4983,0.168583333333333,"2195x1084",2.37938,61.28,"chrome","103.0.0","Desktop","Windows 10","Poggendorff",1,3,24,"Poggendorff_str12.8_diff0.1716",12.8,"1",0.17162,"arrowup",0,953,639,0.158387406498324,0.414270443068293,0.5557,2.62466859216316,3.57770876399966,2.33921419057029,"1.2"
"5c8fcb13dd3b360015b4dff6_dvbq9",30,"Male","Master","Portugal","Caucasian","05/08/2022","10:22:53",35.4983,0.168583333333333,"2195x1084",2.37938,61.28,"chrome","103.0.0","Desktop","Windows 10","Poggendorff",1,3,25,"Poggendorff_str-25.6_diff0.1716",-25.6,"1",0.17162,"arrowup",0,582,439,0.158387406498324,0.414270443068293,0.5557,-3.28091121578765,-5.05964425626941,-2.94722519891231,"1.2"
"5c8fcb13dd3b360015b4dff6_dvbq9",30,"Male","Master","Portugal","Caucasian","05/08/2022","10:22:53",35.4983,0.168583333333333,"2195x1084",2.37938,61.28,"chrome","103.0.0","Desktop","Windows 10","Poggendorff",1,3,26,"Poggendorff_str-12.8_diff0.0354",-12.8,"1",0.03538,"arrowup",0,807,418,0.0347685090928065,0.188095720312824,0.3283,-2.62466859216316,-3.57770876399966,-2.33921419057029,"1.2"
"5c8fcb13dd3b360015b4dff6_dvbq9",30,"Male","Master","Portugal","Caucasian","05/08/2022","10:22:53",35.4983,0.168583333333333,"2195x1084",2.37938,61.28,"chrome","103.0.0","Desktop","Windows 10","Poggendorff",1,3,27,"Poggendorff_str38.4_diff0.0354",38.4,"1",0.03538,"arrowdown",1,762,579,0.0347685090928065,0.188095720312824,0.3283,3.67376581630389,6.19677335393187,3.373730661207,"1.2"
"5c8fcb13dd3b360015b4dff6_dvbq9",30,"Male","Master","Portugal","Caucasian","05/08/2022","10:22:53",35.4983,0.168583333333333,"2195x1084",2.37938,61.28,"chrome","103.0.0","Desktop","Windows 10","Poggendorff",1,3,28,"Poggendorff_str-38.4_diff-0.1716",-38.4,"-1",0.17162,"arrowdown",0,837,355,0.158387406498324,0.414270443068293,0.5557,-3.67376581630389,-6.19677335393187,-3.373730661207,"1.2"
"5c8fcb13dd3b360015b4dff6_dvbq9",30,"Male","Master","Portugal","Caucasian","05/08/2022","10:22:53",35.4983,0.168583333333333,"2195x1084",2.37938,61.28,"chrome","103.0.0","Desktop","Windows 10","Poggendorff",1,3,29,"Poggendorff_str0.0_diff0.3",0,"1",0.3,"arrowup",0,549,424,0.262364264467491,0.547722557505166,0.6694,0,0,0,"1.2"
"5c8fcb13dd3b360015b4dff6_dvbq9",30,"Male","Master","Portugal","Caucasian","05/08/2022","10:22:53",35.4983,0.168583333333333,"2195x1084",2.37938,61.28,"chrome","103.0.0","Desktop","Windows 10","Poggendorff",1,3,30,"Poggendorff_str-38.4_diff0.3",-38.4,"1",0.3,"arrowup",0,540,381,0.262364264467491,0.547722557505166,0.6694,-3.67376581630389,-6.19677335393187,-3.373730661207,"1.2"
"5c8fcb13dd3b360015b4dff6_dvbq9",30,"Male","Master","Portugal","Caucasian","05/08/2022","10:22:53",35.4983,0.168583333333333,"2195x1084",2.37938,61.28,"chrome","103.0.0","Desktop","Windows 10","Poggendorff",1,3,31,"Poggendorff_str0.0_diff0.1716",0,"1",0.17162,"arrowup",0,551,403,0.158387406498324,0.414270443068293,0.5557,0,0,0,"1.2"
"5c8fcb13dd3b360015b4dff6_dvbq9",30,"Male","Master","Portugal","Caucasian","05/08/2022","10:22:53",35.4983,0.168583333333333,"2195x1084",2.37938,61.28,"chrome","103.0.0","Desktop","Windows 10","Poggendorff",1,3,32,"Poggendorff_str-25.6_diff0.3",-25.6,"1",0.3,"arrowup",0,535,395,0.262364264467491,0.547722557505166,0.6694,-3.28091121578765,-5.05964425626941,-2.94722519891231,"1.2"
"5c8fcb13dd3b360015b4dff6_dvbq9",30,"Male","Master","Portugal","Caucasian","05/08/2022","10:22:53",35.4983,0.168583333333333,"2195x1084",2.37938,61.28,"chrome","103.0.0","Desktop","Windows 10","Poggendorff",1,3,33,"Poggendorff_str-12.8_diff-0.1716",-12.8,"-1",0.17162,"arrowdown",0,703,554,0.158387406498324,0.414270443068293,0.5557,-2.62466859216316,-3.57770876399966,-2.33921419057029,"1.2"
"5c8fcb13dd3b360015b4dff6_dvbq9",30,"Male","Master","Portugal","Caucasian","05/08/2022","10:22:53",35.4983,0.168583333333333,"2195x1084",2.37938,61.28,"chrome","103.0.0","Desktop","Windows 10","Poggendorff",1,3,34,"Poggendorff_str25.6_diff-0.3",25.6,"-1",0.3,"arrowdown",0,820,503,0.262364264467491,0.547722557505166,0.6694,3.28091121578765,5.05964425626941,2.94722519891231,"1.2"
"5c8fcb13dd3b360015b4dff6_dvbq9",30,"Male","Master","Portugal","Caucasian","05/08/2022","10:22:53",35.4983,0.168583333333333,"2195x1084",2.37938,61.28,"chrome","103.0.0","Desktop","Windows 10","Poggendorff",1,3,35,"Poggendorff_str-25.6_diff0.0354",-25.6,"1",0.03538,"arrowup",0,539,409,0.0347685090928065,0.188095720312824,0.3283,-3.28091121578765,-5.05964425626941,-2.94722519891231,"1.2"
"5c8fcb13dd3b360015b4dff6_dvbq9",30,"Male","Master","Portugal","Caucasian","05/08/2022","10:22:53",35.4983,0.168583333333333,"2195x1084",2.37938,61.28,"chrome","103.0.0","Desktop","Windows 10","Poggendorff",1,3,36,"Poggendorff_str25.6_diff0.0354",25.6,"1",0.03538,"arrowdown",1,683,506,0.0347685090928065,0.188095720312824,0.3283,3.28091121578765,5.05964425626941,2.94722519891231,"1.2"
"5c8fcb13dd3b360015b4dff6_dvbq9",30,"Male","Master","Portugal","Caucasian","05/08/2022","10:22:53",35.4983,0.168583333333333,"2195x1084",2.37938,61.28,"chrome","103.0.0","Desktop","Windows 10","Poggendorff",1,3,37,"Poggendorff_str12.8_diff-0.0864",12.8,"-1",0.08636,"arrowdown",0,865,393,0.0828326582932122,0.293870719875254,0.442,2.62466859216316,3.57770876399966,2.33921419057029,"1.2"
"5c8fcb13dd3b360015b4dff6_dvbq9",30,"Male","Master","Portugal","Caucasian","05/08/2022","10:22:53",35.4983,0.168583333333333,"2195x1084",2.37938,61.28,"chrome","103.0.0","Desktop","Windows 10","Poggendorff",1,3,38,"Poggendorff_str-12.8_diff0.0864",-12.8,"1",0.08636,"arrowup",0,898,482,0.0828326582932122,0.293870719875254,0.442,-2.62466859216316,-3.57770876399966,-2.33921419057029,"1.2"
"5c8fcb13dd3b360015b4dff6_dvbq9",30,"Male","Master","Portugal","Caucasian","05/08/2022","10:22:53",35.4983,0.168583333333333,"2195x1084",2.37938,61.28,"chrome","103.0.0","Desktop","Windows 10","Poggendorff",1,3,39,"Poggendorff_str-38.4_diff-0.0864",-38.4,"-1",0.08636,"arrowdown",0,772,393,0.0828326582932122,0.293870719875254,0.442,-3.67376581630389,-6.19677335393187,-3.373730661207,"1.2"
"5c8fcb13dd3b360015b4dff6_dvbq9",30,"Male","Master","Portugal","Caucasian","05/08/2022","10:22:53",35.4983,0.168583333333333,"2195x1084",2.37938,61.28,"chrome","103.0.0","Desktop","Windows 10","Poggendorff",1,3,40,"Poggendorff_str0.0_diff-0.3",0,"-1",0.3,"arrowdown",0,898,469,0.262364264467491,0.547722557505166,0.6694,0,0,0,"1.2"
"5c8fcb13dd3b360015b4dff6_dvbq9",30,"Male","Master","Portugal","Caucasian","05/08/2022","10:22:53",35.4983,0.168583333333333,"2195x1084",2.37938,61.28,"chrome","103.0.0","Desktop","Windows 10","Poggendorff",1,3,41,"Poggendorff_str-38.4_diff0.0354",-38.4,"1",0.03538,"arrowup",0,838,361,0.0347685090928065,0.188095720312824,0.3283,-3.67376581630389,-6.19677335393187,-3.373730661207,"1.2"
"5c8fcb13dd3b360015b4dff6_dvbq9",30,"Male","Master","Portugal","Caucasian","05/08/2022","10:22:53",35.4983,0.168583333333333,"2195x1084",2.37938,61.28,"chrome","103.0.0","Desktop","Windows 10","Poggendorff",1,3,42,"Poggendorff_str0.0_diff-0.1716",0,"-1",0.17162,"arrowdown",0,917,466,0.158387406498324,0.414270443068293,0.5557,0,0,0,"1.2"
"5c8fcb13dd3b360015b4dff6_dvbq9",30,"Male","Master","Portugal","Caucasian","05/08/2022","10:22:53",35.4983,0.168583333333333,"2195x1084",2.37938,61.28,"chrome","103.0.0","Desktop","Windows 10","Poggendorff",1,3,43,"Poggendorff_str38.4_diff0.1716",38.4,"1",0.17162,"arrowdown",1,771,697,0.158387406498324,0.414270443068293,0.5557,3.67376581630389,6.19677335393187,3.373730661207,"1.2"
"5c8fcb13dd3b360015b4dff6_dvbq9",30,"Male","Master","Portugal","Caucasian","05/08/2022","10:22:53",35.4983,0.168583333333333,"2195x1084",2.37938,61.28,"chrome","103.0.0","Desktop","Windows 10","Poggendorff",1,3,44,"Poggendorff_str25.6_diff0.3",25.6,"1",0.3,"arrowup",0,693,650,0.262364264467491,0.547722557505166,0.6694,3.28091121578765,5.05964425626941,2.94722519891231,"1.2"
"5c8fcb13dd3b360015b4dff6_dvbq9",30,"Male","Master","Portugal","Caucasian","05/08/2022","10:22:53",35.4983,0.168583333333333,"2195x1084",2.37938,61.28,"chrome","103.0.0","Desktop","Windows 10","Poggendorff",1,3,45,"Poggendorff_str12.8_diff-0.3",12.8,"-1",0.3,"arrowdown",0,699,579,0.262364264467491,0.547722557505166,0.6694,2.62466859216316,3.57770876399966,2.33921419057029,"1.2"
"5c8fcb13dd3b360015b4dff6_dvbq9",30,"Male","Master","Portugal","Caucasian","05/08/2022","10:22:53",35.4983,0.168583333333333,"2195x1084",2.37938,61.28,"chrome","103.0.0","Desktop","Windows 10","Poggendorff",1,3,46,"Poggendorff_str0.0_diff0.0864",0,"1",0.08636,"arrowup",0,583,480,0.0828326582932122,0.293870719875254,0.442,0,0,0,"1.2"
"5c8fcb13dd3b360015b4dff6_dvbq9",30,"Male","Master","Portugal","Caucasian","05/08/2022","10:22:53",35.4983,0.168583333333333,"2195x1084",2.37938,61.28,"chrome","103.0.0","Desktop","Windows 10","Poggendorff",1,3,47,"Poggendorff_str25.6_diff0.1716",25.6,"1",0.17162,"arrowup",0,510,599,0.158387406498324,0.414270443068293,0.5557,3.28091121578765,5.05964425626941,2.94722519891231,"1.2"
"5c8fcb13dd3b360015b4dff6_dvbq9",30,"Male","Master","Portugal","Caucasian","05/08/2022","10:22:53",35.4983,0.168583333333333,"2195x1084",2.37938,61.28,"chrome","103.0.0","Desktop","Windows 10","Poggendorff",1,3,48,"Poggendorff_str38.4_diff0.0864",38.4,"1",0.08636,"arrowdown",1,588,797,0.0828326582932122,0.293870719875254,0.442,3.67376581630389,6.19677335393187,3.373730661207,"1.2"
"5c8fcb13dd3b360015b4dff6_dvbq9",30,"Male","Master","Portugal","Caucasian","05/08/2022","10:22:53",35.4983,0.168583333333333,"2195x1084",2.37938,61.28,"chrome","103.0.0","Desktop","Windows 10","Poggendorff",1,3,49,"Poggendorff_str-25.6_diff-0.3",-25.6,"-1",0.3,"arrowdown",0,973,865,0.262364264467491,0.547722557505166,0.6694,-3.28091121578765,-5.05964425626941,-2.94722519891231,"1.2"
"5c8fcb13dd3b360015b4dff6_dvbq9",30,"Male","Master","Portugal","Caucasian","05/08/2022","10:22:53",35.4983,0.168583333333333,"2195x1084",2.37938,61.28,"chrome","103.0.0","Desktop","Windows 10","Poggendorff",1,3,50,"Poggendorff_str38.4_diff-0.0354",38.4,"-1",0.03538,"arrowup",1,735,650,0.0347685090928065,0.188095720312824,0.3283,3.67376581630389,6.19677335393187,3.373730661207,"1.2"
"5c8fcb13dd3b360015b4dff6_dvbq9",30,"Male","Master","Portugal","Caucasian","05/08/2022","10:22:53",35.4983,0.168583333333333,"2195x1084",2.37938,61.28,"chrome","103.0.0","Desktop","Windows 10","Poggendorff",1,3,51,"Poggendorff_str-12.8_diff0.1716",-12.8,"1",0.17162,"arrowup",0,991,518,0.158387406498324,0.414270443068293,0.5557,-2.62466859216316,-3.57770876399966,-2.33921419057029,"1.2"
"5c8fcb13dd3b360015b4dff6_dvbq9",30,"Male","Master","Portugal","Caucasian","05/08/2022","10:22:53",35.4983,0.168583333333333,"2195x1084",2.37938,61.28,"chrome","103.0.0","Desktop","Windows 10","Poggendorff",1,3,52,"Poggendorff_str0.0_diff-0.0354",0,"-1",0.03538,"arrowdown",0,586,714,0.0347685090928065,0.188095720312824,0.3283,0,0,0,"1.2"
"5c8fcb13dd3b360015b4dff6_dvbq9",30,"Male","Master","Portugal","Caucasian","05/08/2022","10:22:53",35.4983,0.168583333333333,"2195x1084",2.37938,61.28,"chrome","103.0.0","Desktop","Windows 10","Poggendorff",1,3,53,"Poggendorff_str-12.8_diff-0.0354",-12.8,"-1",0.03538,"arrowdown",0,537,512,0.0347685090928065,0.188095720312824,0.3283,-2.62466859216316,-3.57770876399966,-2.33921419057029,"1.2"
"5c8fcb13dd3b360015b4dff6_dvbq9",30,"Male","Master","Portugal","Caucasian","05/08/2022","10:22:53",35.4983,0.168583333333333,"2195x1084",2.37938,61.28,"chrome","103.0.0","Desktop","Windows 10","Poggendorff",1,3,54,"Poggendorff_str25.6_diff-0.1716",25.6,"-1",0.17162,"arrowup",1,702,1360,0.158387406498324,0.414270443068293,0.5557,3.28091121578765,5.05964425626941,2.94722519891231,"1.2"
"5c8fcb13dd3b360015b4dff6_dvbq9",30,"Male","Master","Portugal","Caucasian","05/08/2022","10:22:53",35.4983,0.168583333333333,"2195x1084",2.37938,61.28,"chrome","103.0.0","Desktop","Windows 10","Poggendorff",1,3,55,"Poggendorff_str-25.6_diff-0.0354",-25.6,"-1",0.03538,"arrowdown",0,965,670,0.0347685090928065,0.188095720312824,0.3283,-3.28091121578765,-5.05964425626941,-2.94722519891231,"1.2"
"5c8fcb13dd3b360015b4dff6_dvbq9",30,"Male","Master","Portugal","Caucasian","05/08/2022","10:22:53",35.4983,0.168583333333333,"2195x1084",2.37938,61.28,"chrome","103.0.0","Desktop","Windows 10","Poggendorff",1,3,56,"Poggendorff_str38.4_diff-0.0864",38.4,"-1",0.08636,"arrowup",1,862,661,0.0828326582932122,0.293870719875254,0.442,3.67376581630389,6.19677335393187,3.373730661207,"1.2"
"5c8fcb13dd3b360015b4dff6_dvbq9",30,"Male","Master","Portugal","Caucasian","05/08/2022","10:22:53",35.4983,0.168583333333333,"2195x1084",2.37938,61.28,"chrome","103.0.0","Desktop","Windows 10","Ponzo",1,4,1,"Ponzo_str-21.6_diff0.2735",-21.6,"1",0.27349,"arrowup",0,610,608,0.241761163031201,0.52296271377604,0.6491,-3.11794990627824,-4.6475800154489,-2.78495330016767,"1.2"
"5c8fcb13dd3b360015b4dff6_dvbq9",30,"Male","Master","Portugal","Caucasian","05/08/2022","10:22:53",35.4983,0.168583333333333,"2195x1084",2.37938,61.28,"chrome","103.0.0","Desktop","Windows 10","Ponzo",1,4,2,"Ponzo_str7.2_diff-0.0656",7.2,"-1",0.06565,"arrowup",1,907,1493,0.0635849416251106,0.256222559506379,0.4034,2.10413415427021,2.68328157299975,1.93097876921126,"1.2"
"5c8fcb13dd3b360015b4dff6_dvbq9",30,"Male","Master","Portugal","Caucasian","05/08/2022","10:22:53",35.4983,0.168583333333333,"2195x1084",2.37938,61.28,"chrome","103.0.0","Desktop","Windows 10","Ponzo",1,4,3,"Ponzo_str14.4_diff-0.1458",14.4,"-1",0.14575,"arrowup",1,998,763,0.136059444407096,0.381772183376421,0.5263,2.73436750941958,3.79473319220206,2.43288079822936,"1.2"
"5c8fcb13dd3b360015b4dff6_dvbq9",30,"Male","Master","Portugal","Caucasian","05/08/2022","10:22:53",35.4983,0.168583333333333,"2195x1084",2.37938,61.28,"chrome","103.0.0","Desktop","Windows 10","Ponzo",1,4,4,"Ponzo_str-14.4_diff-0.1458",-14.4,"-1",0.14575,"arrowdown",0,734,709,0.136059444407096,0.381772183376421,0.5263,-2.73436750941958,-3.79473319220206,-2.43288079822936,"1.2"
"5c8fcb13dd3b360015b4dff6_dvbq9",30,"Male","Master","Portugal","Caucasian","05/08/2022","10:22:53",35.4983,0.168583333333333,"2195x1084",2.37938,61.28,"chrome","103.0.0","Desktop","Windows 10","Ponzo",1,4,5,"Ponzo_str0.0_diff0.2735",0,"1",0.27349,"arrowup",0,568,509,0.241761163031201,0.52296271377604,0.6491,0,0,0,"1.2"
"5c8fcb13dd3b360015b4dff6_dvbq9",30,"Male","Master","Portugal","Caucasian","05/08/2022","10:22:53",35.4983,0.168583333333333,"2195x1084",2.37938,61.28,"chrome","103.0.0","Desktop","Windows 10","Ponzo",1,4,6,"Ponzo_str-21.6_diff-0.0656",-21.6,"-1",0.06565,"arrowdown",0,855,540,0.0635849416251106,0.256222559506379,0.4034,-3.11794990627824,-4.6475800154489,-2.78495330016767,"1.2"
"5c8fcb13dd3b360015b4dff6_dvbq9",30,"Male","Master","Portugal","Caucasian","05/08/2022","10:22:53",35.4983,0.168583333333333,"2195x1084",2.37938,61.28,"chrome","103.0.0","Desktop","Windows 10","Ponzo",1,4,7,"Ponzo_str-14.4_diff0.1458",-14.4,"1",0.14575,"arrowup",0,971,606,0.136059444407096,0.381772183376421,0.5263,-2.73436750941958,-3.79473319220206,-2.43288079822936,"1.2"
"5c8fcb13dd3b360015b4dff6_dvbq9",30,"Male","Master","Portugal","Caucasian","05/08/2022","10:22:53",35.4983,0.168583333333333,"2195x1084",2.37938,61.28,"chrome","103.0.0","Desktop","Windows 10","Ponzo",1,4,8,"Ponzo_str21.6_diff-0.2735",21.6,"-1",0.27349,"arrowdown",0,513,633,0.241761163031201,0.52296271377604,0.6491,3.11794990627824,4.6475800154489,2.78495330016767,"1.2"
"5c8fcb13dd3b360015b4dff6_dvbq9",30,"Male","Master","Portugal","Caucasian","05/08/2022","10:22:53",35.4983,0.168583333333333,"2195x1084",2.37938,61.28,"chrome","103.0.0","Desktop","Windows 10","Ponzo",1,4,9,"Ponzo_str-21.6_diff0.46",-21.6,"1",0.46,"arrowup",0,524,563,0.378436435720245,0.678232998312527,0.7719,-3.11794990627824,-4.6475800154489,-2.78495330016767,"1.2"
"5c8fcb13dd3b360015b4dff6_dvbq9",30,"Male","Master","Portugal","Caucasian","05/08/2022","10:22:53",35.4983,0.168583333333333,"2195x1084",2.37938,61.28,"chrome","103.0.0","Desktop","Windows 10","Ponzo",1,4,10,"Ponzo_str21.6_diff-0.46",21.6,"-1",0.46,"arrowdown",0,605,607,0.378436435720245,0.678232998312527,0.7719,3.11794990627824,4.6475800154489,2.78495330016767,"1.2"
"5c8fcb13dd3b360015b4dff6_dvbq9",30,"Male","Master","Portugal","Caucasian","05/08/2022","10:22:53",35.4983,0.168583333333333,"2195x1084",2.37938,61.28,"chrome","103.0.0","Desktop","Windows 10","Ponzo",1,4,11,"Ponzo_str-7.2_diff-0.2735",-7.2,"-1",0.27349,"arrowdown",0,584,700,0.241761163031201,0.52296271377604,0.6491,-2.10413415427021,-2.68328157299975,-1.93097876921126,"1.2"
"5c8fcb13dd3b360015b4dff6_dvbq9",30,"Male","Master","Portugal","Caucasian","05/08/2022","10:22:53",35.4983,0.168583333333333,"2195x1084",2.37938,61.28,"chrome","103.0.0","Desktop","Windows 10","Ponzo",1,4,12,"Ponzo_str21.6_diff-0.0656",21.6,"-1",0.06565,"arrowup",1,627,1219,0.0635849416251106,0.256222559506379,0.4034,3.11794990627824,4.6475800154489,2.78495330016767,"1.2"
"5c8fcb13dd3b360015b4dff6_dvbq9",30,"Male","Master","Portugal","Caucasian","05/08/2022","10:22:53",35.4983,0.168583333333333,"2195x1084",2.37938,61.28,"chrome","103.0.0","Desktop","Windows 10","Ponzo",1,4,13,"Ponzo_str-7.2_diff-0.0656",-7.2,"-1",0.06565,"arrowdown",0,778,911,0.0635849416251106,0.256222559506379,0.4034,-2.10413415427021,-2.68328157299975,-1.93097876921126,"1.2"
"5c8fcb13dd3b360015b4dff6_dvbq9",30,"Male","Master","Portugal","Caucasian","05/08/2022","10:22:53",35.4983,0.168583333333333,"2195x1084",2.37938,61.28,"chrome","103.0.0","Desktop","Windows 10","Ponzo",1,4,14,"Ponzo_str0.0_diff-0.0656",0,"-1",0.06565,"arrowdown",0,610,1159,0.0635849416251106,0.256222559506379,0.4034,0,0,0,"1.2"
"5c8fcb13dd3b360015b4dff6_dvbq9",30,"Male","Master","Portugal","Caucasian","05/08/2022","10:22:53",35.4983,0.168583333333333,"2195x1084",2.37938,61.28,"chrome","103.0.0","Desktop","Windows 10","Ponzo",1,4,15,"Ponzo_str14.4_diff0.46",14.4,"1",0.46,"arrowup",0,532,635,0.378436435720245,0.678232998312527,0.7719,2.73436750941958,3.79473319220206,2.43288079822936,"1.2"
"5c8fcb13dd3b360015b4dff6_dvbq9",30,"Male","Master","Portugal","Caucasian","05/08/2022","10:22:53",35.4983,0.168583333333333,"2195x1084",2.37938,61.28,"chrome","103.0.0","Desktop","Windows 10","Ponzo",1,4,16,"Ponzo_str-14.4_diff-0.0656",-14.4,"-1",0.06565,"arrowdown",0,573,537,0.0635849416251106,0.256222559506379,0.4034,-2.73436750941958,-3.79473319220206,-2.43288079822936,"1.2"
"5c8fcb13dd3b360015b4dff6_dvbq9",30,"Male","Master","Portugal","Caucasian","05/08/2022","10:22:53",35.4983,0.168583333333333,"2195x1084",2.37938,61.28,"chrome","103.0.0","Desktop","Windows 10","Ponzo",1,4,17,"Ponzo_str-14.4_diff-0.2735",-14.4,"-1",0.27349,"arrowdown",0,789,409,0.241761163031201,0.52296271377604,0.6491,-2.73436750941958,-3.79473319220206,-2.43288079822936,"1.2"
"5c8fcb13dd3b360015b4dff6_dvbq9",30,"Male","Master","Portugal","Caucasian","05/08/2022","10:22:53",35.4983,0.168583333333333,"2195x1084",2.37938,61.28,"chrome","103.0.0","Desktop","Windows 10","Ponzo",1,4,18,"Ponzo_str7.2_diff0.2735",7.2,"1",0.27349,"arrowup",0,967,544,0.241761163031201,0.52296271377604,0.6491,2.10413415427021,2.68328157299975,1.93097876921126,"1.2"
"5c8fcb13dd3b360015b4dff6_dvbq9",30,"Male","Master","Portugal","Caucasian","05/08/2022","10:22:53",35.4983,0.168583333333333,"2195x1084",2.37938,61.28,"chrome","103.0.0","Desktop","Windows 10","Ponzo",1,4,19,"Ponzo_str21.6_diff0.2735",21.6,"1",0.27349,"arrowup",0,539,676,0.241761163031201,0.52296271377604,0.6491,3.11794990627824,4.6475800154489,2.78495330016767,"1.2"
"5c8fcb13dd3b360015b4dff6_dvbq9",30,"Male","Master","Portugal","Caucasian","05/08/2022","10:22:53",35.4983,0.168583333333333,"2195x1084",2.37938,61.28,"chrome","103.0.0","Desktop","Windows 10","Ponzo",1,4,20,"Ponzo_str-7.2_diff0.2735",-7.2,"1",0.27349,"arrowup",0,662,501,0.241761163031201,0.52296271377604,0.6491,-2.10413415427021,-2.68328157299975,-1.93097876921126,"1.2"
"5c8fcb13dd3b360015b4dff6_dvbq9",30,"Male","Master","Portugal","Caucasian","05/08/2022","10:22:53",35.4983,0.168583333333333,"2195x1084",2.37938,61.28,"chrome","103.0.0","Desktop","Windows 10","Ponzo",1,4,21,"Ponzo_str0.0_diff-0.46",0,"-1",0.46,"arrowdown",0,947,490,0.378436435720245,0.678232998312527,0.7719,0,0,0,"1.2"
"5c8fcb13dd3b360015b4dff6_dvbq9",30,"Male","Master","Portugal","Caucasian","05/08/2022","10:22:53",35.4983,0.168583333333333,"2195x1084",2.37938,61.28,"chrome","103.0.0","Desktop","Windows 10","Ponzo",1,4,22,"Ponzo_str7.2_diff-0.1458",7.2,"-1",0.14575,"arrowdown",0,797,965,0.136059444407096,0.381772183376421,0.5263,2.10413415427021,2.68328157299975,1.93097876921126,"1.2"
"5c8fcb13dd3b360015b4dff6_dvbq9",30,"Male","Master","Portugal","Caucasian","05/08/2022","10:22:53",35.4983,0.168583333333333,"2195x1084",2.37938,61.28,"chrome","103.0.0","Desktop","Windows 10","Ponzo",1,4,23,"Ponzo_str-21.6_diff0.1458",-21.6,"1",0.14575,"arrowup",0,814,496,0.136059444407096,0.381772183376421,0.5263,-3.11794990627824,-4.6475800154489,-2.78495330016767,"1.2"
"5c8fcb13dd3b360015b4dff6_dvbq9",30,"Male","Master","Portugal","Caucasian","05/08/2022","10:22:53",35.4983,0.168583333333333,"2195x1084",2.37938,61.28,"chrome","103.0.0","Desktop","Windows 10","Ponzo",1,4,24,"Ponzo_str21.6_diff-0.1458",21.6,"-1",0.14575,"arrowup",1,568,637,0.136059444407096,0.381772183376421,0.5263,3.11794990627824,4.6475800154489,2.78495330016767,"1.2"
"5c8fcb13dd3b360015b4dff6_dvbq9",30,"Male","Master","Portugal","Caucasian","05/08/2022","10:22:53",35.4983,0.168583333333333,"2195x1084",2.37938,61.28,"chrome","103.0.0","Desktop","Windows 10","Ponzo",1,4,25,"Ponzo_str-21.6_diff-0.2735",-21.6,"-1",0.27349,"arrowdown",0,979,505,0.241761163031201,0.52296271377604,0.6491,-3.11794990627824,-4.6475800154489,-2.78495330016767,"1.2"
"5c8fcb13dd3b360015b4dff6_dvbq9",30,"Male","Master","Portugal","Caucasian","05/08/2022","10:22:53",35.4983,0.168583333333333,"2195x1084",2.37938,61.28,"chrome","103.0.0","Desktop","Windows 10","Ponzo",1,4,26,"Ponzo_str-7.2_diff-0.1458",-7.2,"-1",0.14575,"arrowdown",0,921,531,0.136059444407096,0.381772183376421,0.5263,-2.10413415427021,-2.68328157299975,-1.93097876921126,"1.2"
"5c8fcb13dd3b360015b4dff6_dvbq9",30,"Male","Master","Portugal","Caucasian","05/08/2022","10:22:53",35.4983,0.168583333333333,"2195x1084",2.37938,61.28,"chrome","103.0.0","Desktop","Windows 10","Ponzo",1,4,27,"Ponzo_str14.4_diff-0.0656",14.4,"-1",0.06565,"arrowup",1,587,1345,0.0635849416251106,0.256222559506379,0.4034,2.73436750941958,3.79473319220206,2.43288079822936,"1.2"
"5c8fcb13dd3b360015b4dff6_dvbq9",30,"Male","Master","Portugal","Caucasian","05/08/2022","10:22:53",35.4983,0.168583333333333,"2195x1084",2.37938,61.28,"chrome","103.0.0","Desktop","Windows 10","Ponzo",1,4,28,"Ponzo_str-21.6_diff-0.46",-21.6,"-1",0.46,"arrowdown",0,574,553,0.378436435720245,0.678232998312527,0.7719,-3.11794990627824,-4.6475800154489,-2.78495330016767,"1.2"
"5c8fcb13dd3b360015b4dff6_dvbq9",30,"Male","Master","Portugal","Caucasian","05/08/2022","10:22:53",35.4983,0.168583333333333,"2195x1084",2.37938,61.28,"chrome","103.0.0","Desktop","Windows 10","Ponzo",1,4,29,"Ponzo_str0.0_diff-0.2735",0,"-1",0.27349,"arrowdown",0,834,433,0.241761163031201,0.52296271377604,0.6491,0,0,0,"1.2"
"5c8fcb13dd3b360015b4dff6_dvbq9",30,"Male","Master","Portugal","Caucasian","05/08/2022","10:22:53",35.4983,0.168583333333333,"2195x1084",2.37938,61.28,"chrome","103.0.0","Desktop","Windows 10","Ponzo",1,4,30,"Ponzo_str14.4_diff0.1458",14.4,"1",0.14575,"arrowup",0,604,638,0.136059444407096,0.381772183376421,0.5263,2.73436750941958,3.79473319220206,2.43288079822936,"1.2"
"5c8fcb13dd3b360015b4dff6_dvbq9",30,"Male","Master","Portugal","Caucasian","05/08/2022","10:22:53",35.4983,0.168583333333333,"2195x1084",2.37938,61.28,"chrome","103.0.0","Desktop","Windows 10","Ponzo",1,4,31,"Ponzo_str-14.4_diff0.46",-14.4,"1",0.46,"arrowup",0,953,449,0.378436435720245,0.678232998312527,0.7719,-2.73436750941958,-3.79473319220206,-2.43288079822936,"1.2"
"5c8fcb13dd3b360015b4dff6_dvbq9",30,"Male","Master","Portugal","Caucasian","05/08/2022","10:22:53",35.4983,0.168583333333333,"2195x1084",2.37938,61.28,"chrome","103.0.0","Desktop","Windows 10","Ponzo",1,4,32,"Ponzo_str-7.2_diff0.46",-7.2,"1",0.46,"arrowup",0,523,444,0.378436435720245,0.678232998312527,0.7719,-2.10413415427021,-2.68328157299975,-1.93097876921126,"1.2"
"5c8fcb13dd3b360015b4dff6_dvbq9",30,"Male","Master","Portugal","Caucasian","05/08/2022","10:22:53",35.4983,0.168583333333333,"2195x1084",2.37938,61.28,"chrome","103.0.0","Desktop","Windows 10","Ponzo",1,4,33,"Ponzo_str-21.6_diff-0.1458",-21.6,"-1",0.14575,"arrowdown",0,720,418,0.136059444407096,0.381772183376421,0.5263,-3.11794990627824,-4.6475800154489,-2.78495330016767,"1.2"
"5c8fcb13dd3b360015b4dff6_dvbq9",30,"Male","Master","Portugal","Caucasian","05/08/2022","10:22:53",35.4983,0.168583333333333,"2195x1084",2.37938,61.28,"chrome","103.0.0","Desktop","Windows 10","Ponzo",1,4,34,"Ponzo_str7.2_diff-0.2735",7.2,"-1",0.27349,"arrowdown",0,534,542,0.241761163031201,0.52296271377604,0.6491,2.10413415427021,2.68328157299975,1.93097876921126,"1.2"
"5c8fcb13dd3b360015b4dff6_dvbq9",30,"Male","Master","Portugal","Caucasian","05/08/2022","10:22:53",35.4983,0.168583333333333,"2195x1084",2.37938,61.28,"chrome","103.0.0","Desktop","Windows 10","Ponzo",1,4,35,"Ponzo_str-21.6_diff0.0656",-21.6,"1",0.06565,"arrowup",0,881,460,0.0635849416251106,0.256222559506379,0.4034,-3.11794990627824,-4.6475800154489,-2.78495330016767,"1.2"
"5c8fcb13dd3b360015b4dff6_dvbq9",30,"Male","Master","Portugal","Caucasian","05/08/2022","10:22:53",35.4983,0.168583333333333,"2195x1084",2.37938,61.28,"chrome","103.0.0","Desktop","Windows 10","Ponzo",1,4,36,"Ponzo_str-14.4_diff0.2735",-14.4,"1",0.27349,"arrowup",0,790,436,0.241761163031201,0.52296271377604,0.6491,-2.73436750941958,-3.79473319220206,-2.43288079822936,"1.2"
"5c8fcb13dd3b360015b4dff6_dvbq9",30,"Male","Master","Portugal","Caucasian","05/08/2022","10:22:53",35.4983,0.168583333333333,"2195x1084",2.37938,61.28,"chrome","103.0.0","Desktop","Windows 10","Ponzo",1,4,37,"Ponzo_str21.6_diff0.1458",21.6,"1",0.14575,"arrowdown",1,748,483,0.136059444407096,0.381772183376421,0.5263,3.11794990627824,4.6475800154489,2.78495330016767,"1.2"
"5c8fcb13dd3b360015b4dff6_dvbq9",30,"Male","Master","Portugal","Caucasian","05/08/2022","10:22:53",35.4983,0.168583333333333,"2195x1084",2.37938,61.28,"chrome","103.0.0","Desktop","Windows 10","Ponzo",1,4,38,"Ponzo_str-7.2_diff0.0656",-7.2,"1",0.06565,"arrowup",0,972,703,0.0635849416251106,0.256222559506379,0.4034,-2.10413415427021,-2.68328157299975,-1.93097876921126,"1.2"
"5c8fcb13dd3b360015b4dff6_dvbq9",30,"Male","Master","Portugal","Caucasian","05/08/2022","10:22:53",35.4983,0.168583333333333,"2195x1084",2.37938,61.28,"chrome","103.0.0","Desktop","Windows 10","Ponzo",1,4,39,"Ponzo_str14.4_diff-0.2735",14.4,"-1",0.27349,"arrowdown",0,833,553,0.241761163031201,0.52296271377604,0.6491,2.73436750941958,3.79473319220206,2.43288079822936,"1.2"
"5c8fcb13dd3b360015b4dff6_dvbq9",30,"Male","Master","Portugal","Caucasian","05/08/2022","10:22:53",35.4983,0.168583333333333,"2195x1084",2.37938,61.28,"chrome","103.0.0","Desktop","Windows 10","Ponzo",1,4,40,"Ponzo_str21.6_diff0.0656",21.6,"1",0.06565,"arrowdown",1,586,1063,0.0635849416251106,0.256222559506379,0.4034,3.11794990627824,4.6475800154489,2.78495330016767,"1.2"
