"Participant_ID","Age","Initials","PlayedBefore","Stimulus","Illusion_Strength","Illusion_Difference","RT","Response","Block","Correct_response","Trial_index","Prestimulus_duration","Correct","Block_number","Trial_number","Block_Accuracy","Block_RT_Mean","Block_RT_Mean_Corr","Block_IES","Fullscreen","Experiment_version","Datetime","Date","Time","Date_timezone","Window_width","Window_height","Window_resolution","Screen_width","Screen_height","Screen_resolution","Screen_colordepth","Screen_pixeldepth","Screen_touchscreen","Browser_name","Browser_codename","Browser_engine","Browser_version","Browser","System_platform","System_language","Duration_Consent","Duration_InfoGeneral","Duration_InfoSession","Grand_Accuracy","Grand_RT_Mean","Grand_RT_Mean_Corr","Grand_IES"
"20210308_142550_lnrzr","20/04/1996","ZJ","No","stimuli/Delboeuf_str-0.33_diff-0.33.png",-0.33,-0.33,680.700000026263,"arrowright","delboeuf","arrowright",8,2627,TRUE,1,1,1,914.873750007246,914.873750007246,914.873750007246,"Yes","0.0.1","08/03/2021 14:25:50","20210308","142550",8,1536,722,"1536x722",1536,864,"1536x864",24,24,FALSE,"Netscape","Mozilla","Gecko","5.0 (Windows NT 10.0; Win64; x64) AppleWebKit/537.36 (KHTML, like Gecko) Chrome/88.0.4324.190 Safari/537.36","Mozilla/5.0 (Windows NT 10.0; Win64; x64) AppleWebKit/537.36 (KHTML, like Gecko) Chrome/88.0.4324.190 Safari/537.36","Win32","en-US",1625.92500005849,12482.1399999782,1975.65999999642,1,900.359999999637,900.359999999637,900.359999999637
"20210308_142550_lnrzr","20/04/1996","ZJ","No","stimuli/Delboeuf_str0.33_diff0.33.png",0.33,0.33,1032.83999999985,"arrowleft","delboeuf","arrowleft",10,487,TRUE,1,2,1,914.873750007246,914.873750007246,914.873750007246,"Yes","0.0.1","08/03/2021 14:25:50","20210308","142550",8,1536,722,"1536x722",1536,864,"1536x864",24,24,FALSE,"Netscape","Mozilla","Gecko","5.0 (Windows NT 10.0; Win64; x64) AppleWebKit/537.36 (KHTML, like Gecko) Chrome/88.0.4324.190 Safari/537.36","Mozilla/5.0 (Windows NT 10.0; Win64; x64) AppleWebKit/537.36 (KHTML, like Gecko) Chrome/88.0.4324.190 Safari/537.36","Win32","en-US",1625.92500005849,12482.1399999782,1975.65999999642,1,900.359999999637,900.359999999637,900.359999999637
"20210308_142550_lnrzr","20/04/1996","ZJ","No","stimuli/Delboeuf_str-0.33_diff0.33.png",-0.33,0.33,988.170000026003,"arrowleft","delboeuf","arrowleft",12,720,TRUE,1,3,1,914.873750007246,914.873750007246,914.873750007246,"Yes","0.0.1","08/03/2021 14:25:50","20210308","142550",8,1536,722,"1536x722",1536,864,"1536x864",24,24,FALSE,"Netscape","Mozilla","Gecko","5.0 (Windows NT 10.0; Win64; x64) AppleWebKit/537.36 (KHTML, like Gecko) Chrome/88.0.4324.190 Safari/537.36","Mozilla/5.0 (Windows NT 10.0; Win64; x64) AppleWebKit/537.36 (KHTML, like Gecko) Chrome/88.0.4324.190 Safari/537.36","Win32","en-US",1625.92500005849,12482.1399999782,1975.65999999642,1,900.359999999637,900.359999999637,900.359999999637
"20210308_142550_lnrzr","20/04/1996","ZJ","No","stimuli/Delboeuf_str0.33_diff-0.33.png",0.33,-0.33,957.784999976866,"arrowright","delboeuf","arrowright",14,445,TRUE,1,4,1,914.873750007246,914.873750007246,914.873750007246,"Yes","0.0.1","08/03/2021 14:25:50","20210308","142550",8,1536,722,"1536x722",1536,864,"1536x864",24,24,FALSE,"Netscape","Mozilla","Gecko","5.0 (Windows NT 10.0; Win64; x64) AppleWebKit/537.36 (KHTML, like Gecko) Chrome/88.0.4324.190 Safari/537.36","Mozilla/5.0 (Windows NT 10.0; Win64; x64) AppleWebKit/537.36 (KHTML, like Gecko) Chrome/88.0.4324.190 Safari/537.36","Win32","en-US",1625.92500005849,12482.1399999782,1975.65999999642,1,900.359999999637,900.359999999637,900.359999999637
"20210308_142550_lnrzr","20/04/1996","ZJ","No","stimuli/Ebbinghaus_str0.33_diff-0.33.png",0.33,-0.33,1062.43499997072,"arrowright","ebbinghaus","arrowright",19,2454,TRUE,2,1,1,885.846249992028,885.846249992028,885.846249992028,"Yes","0.0.1","08/03/2021 14:25:50","20210308","142550",8,1536,722,"1536x722",1536,864,"1536x864",24,24,FALSE,"Netscape","Mozilla","Gecko","5.0 (Windows NT 10.0; Win64; x64) AppleWebKit/537.36 (KHTML, like Gecko) Chrome/88.0.4324.190 Safari/537.36","Mozilla/5.0 (Windows NT 10.0; Win64; x64) AppleWebKit/537.36 (KHTML, like Gecko) Chrome/88.0.4324.190 Safari/537.36","Win32","en-US",1625.92500005849,12482.1399999782,1975.65999999642,1,900.359999999637,900.359999999637,900.359999999637
"20210308_142550_lnrzr","20/04/1996","ZJ","No","stimuli/Ebbinghaus_str0.33_diff0.33.png",0.33,0.33,712.81000005547,"arrowleft","ebbinghaus","arrowleft",21,557,TRUE,2,2,1,885.846249992028,885.846249992028,885.846249992028,"Yes","0.0.1","08/03/2021 14:25:50","20210308","142550",8,1536,722,"1536x722",1536,864,"1536x864",24,24,FALSE,"Netscape","Mozilla","Gecko","5.0 (Windows NT 10.0; Win64; x64) AppleWebKit/537.36 (KHTML, like Gecko) Chrome/88.0.4324.190 Safari/537.36","Mozilla/5.0 (Windows NT 10.0; Win64; x64) AppleWebKit/537.36 (KHTML, like Gecko) Chrome/88.0.4324.190 Safari/537.36","Win32","en-US",1625.92500005849,12482.1399999782,1975.65999999642,1,900.359999999637,900.359999999637,900.359999999637
"20210308_142550_lnrzr","20/04/1996","ZJ","No","stimuli/Ebbinghaus_str-0.33_diff0.33.png",-0.33,0.33,749.249999993481,"arrowleft","ebbinghaus","arrowleft",23,283,TRUE,2,3,1,885.846249992028,885.846249992028,885.846249992028,"Yes","0.0.1","08/03/2021 14:25:50","20210308","142550",8,1536,722,"1536x722",1536,864,"1536x864",24,24,FALSE,"Netscape","Mozilla","Gecko","5.0 (Windows NT 10.0; Win64; x64) AppleWebKit/537.36 (KHTML, like Gecko) Chrome/88.0.4324.190 Safari/537.36","Mozilla/5.0 (Windows NT 10.0; Win64; x64) AppleWebKit/537.36 (KHTML, like Gecko) Chrome/88.0.4324.190 Safari/537.36","Win32","en-US",1625.92500005849,12482.1399999782,1975.65999999642,1,900.359999999637,900.359999999637,900.359999999637
"20210308_142550_lnrzr","20/04/1996","ZJ","No","stimuli/Ebbinghaus_str-0.33_diff-0.33.png",-0.33,-0.33,1018.88999994844,"arrowright","ebbinghaus","arrowright",25,409,TRUE,2,4,1,885.846249992028,885.846249992028,885.846249992028,"Yes","0.0.1","08/03/2021 14:25:50","20210308","142550",8,1536,722,"1536x722",1536,864,"1536x864",24,24,FALSE,"Netscape","Mozilla","Gecko","5.0 (Windows NT 10.0; Win64; x64) AppleWebKit/537.36 (KHTML, like Gecko) Chrome/88.0.4324.190 Safari/537.36","Mozilla/5.0 (Windows NT 10.0; Win64; x64) AppleWebKit/537.36 (KHTML, like Gecko) Chrome/88.0.4324.190 Safari/537.36","Win32","en-US",1625.92500005849,12482.1399999782,1975.65999999642,1,900.359999999637,900.359999999637,900.359999999637
"20210309_142113_6yadf","20/04/1996","TS","Yes","stimuli/Delboeuf_str-0.33_diff0.33.png",-0.33,0.33,759.235000004992,"arrowleft","delboeuf","arrowleft",7,2305,TRUE,1,1,0.75,769.983749953099,815.344999932374,1087.1266665765,"Yes","0.0.1","09/03/2021 14:21:13","20210309","142113",8,1536,722,"1536x722",1536,864,"1536x864",24,24,FALSE,"Netscape","Mozilla","Gecko","5.0 (Windows NT 10.0; Win64; x64) AppleWebKit/537.36 (KHTML, like Gecko) Chrome/88.0.4324.190 Safari/537.36","Mozilla/5.0 (Windows NT 10.0; Win64; x64) AppleWebKit/537.36 (KHTML, like Gecko) Chrome/88.0.4324.190 Safari/537.36","Win32","en-US",982.169999973848,6376.81000004523,2478.54500007816,0.75,726.977812460973,728.259583294857,971.012777726476
"20210309_142113_6yadf","20/04/1996","TS","Yes","stimuli/Delboeuf_str0.33_diff0.33.png",0.33,0.33,588.764999993145,"arrowleft","delboeuf","arrowleft",9,316,TRUE,1,2,0.75,769.983749953099,815.344999932374,1087.1266665765,"Yes","0.0.1","09/03/2021 14:21:13","20210309","142113",8,1536,722,"1536x722",1536,864,"1536x864",24,24,FALSE,"Netscape","Mozilla","Gecko","5.0 (Windows NT 10.0; Win64; x64) AppleWebKit/537.36 (KHTML, like Gecko) Chrome/88.0.4324.190 Safari/537.36","Mozilla/5.0 (Windows NT 10.0; Win64; x64) AppleWebKit/537.36 (KHTML, like Gecko) Chrome/88.0.4324.190 Safari/537.36","Win32","en-US",982.169999973848,6376.81000004523,2478.54500007816,0.75,726.977812460973,728.259583294857,971.012777726476
"20210309_142113_6yadf","20/04/1996","TS","Yes","stimuli/Delboeuf_str0.33_diff-0.33.png",0.33,-0.33,1098.03499979898,"arrowright","delboeuf","arrowright",11,744,TRUE,1,3,0.75,769.983749953099,815.344999932374,1087.1266665765,"Yes","0.0.1","09/03/2021 14:21:13","20210309","142113",8,1536,722,"1536x722",1536,864,"1536x864",24,24,FALSE,"Netscape","Mozilla","Gecko","5.0 (Windows NT 10.0; Win64; x64) AppleWebKit/537.36 (KHTML, like Gecko) Chrome/88.0.4324.190 Safari/537.36","Mozilla/5.0 (Windows NT 10.0; Win64; x64) AppleWebKit/537.36 (KHTML, like Gecko) Chrome/88.0.4324.190 Safari/537.36","Win32","en-US",982.169999973848,6376.81000004523,2478.54500007816,0.75,726.977812460973,728.259583294857,971.012777726476
"20210309_142113_6yadf","20/04/1996","TS","Yes","stimuli/Delboeuf_str-0.33_diff-0.33.png",-0.33,-0.33,633.900000015274,"arrowleft","delboeuf","arrowright",13,644,FALSE,1,4,0.75,769.983749953099,815.344999932374,1087.1266665765,"Yes","0.0.1","09/03/2021 14:21:13","20210309","142113",8,1536,722,"1536x722",1536,864,"1536x864",24,24,FALSE,"Netscape","Mozilla","Gecko","5.0 (Windows NT 10.0; Win64; x64) AppleWebKit/537.36 (KHTML, like Gecko) Chrome/88.0.4324.190 Safari/537.36","Mozilla/5.0 (Windows NT 10.0; Win64; x64) AppleWebKit/537.36 (KHTML, like Gecko) Chrome/88.0.4324.190 Safari/537.36","Win32","en-US",982.169999973848,6376.81000004523,2478.54500007816,0.75,726.977812460973,728.259583294857,971.012777726476
"20210309_142113_6yadf","20/04/1996","TS","Yes","stimuli/Ebbinghaus_str0.33_diff-0.33.png",0.33,-0.33,609.089999925345,"arrowright","ebbinghaus","arrowright",18,2286,TRUE,2,1,0.75,573.398749984335,571.698333291958,762.264444389277,"Yes","0.0.1","09/03/2021 14:21:13","20210309","142113",8,1536,722,"1536x722",1536,864,"1536x864",24,24,FALSE,"Netscape","Mozilla","Gecko","5.0 (Windows NT 10.0; Win64; x64) AppleWebKit/537.36 (KHTML, like Gecko) Chrome/88.0.4324.190 Safari/537.36","Mozilla/5.0 (Windows NT 10.0; Win64; x64) AppleWebKit/537.36 (KHTML, like Gecko) Chrome/88.0.4324.190 Safari/537.36","Win32","en-US",982.169999973848,6376.81000004523,2478.54500007816,0.75,726.977812460973,728.259583294857,971.012777726476
"20210309_142113_6yadf","20/04/1996","TS","Yes","stimuli/Ebbinghaus_str-0.33_diff0.33.png",-0.33,0.33,595.860000001267,"arrowleft","ebbinghaus","arrowleft",20,362,TRUE,2,2,0.75,573.398749984335,571.698333291958,762.264444389277,"Yes","0.0.1","09/03/2021 14:21:13","20210309","142113",8,1536,722,"1536x722",1536,864,"1536x864",24,24,FALSE,"Netscape","Mozilla","Gecko","5.0 (Windows NT 10.0; Win64; x64) AppleWebKit/537.36 (KHTML, like Gecko) Chrome/88.0.4324.190 Safari/537.36","Mozilla/5.0 (Windows NT 10.0; Win64; x64) AppleWebKit/537.36 (KHTML, like Gecko) Chrome/88.0.4324.190 Safari/537.36","Win32","en-US",982.169999973848,6376.81000004523,2478.54500007816,0.75,726.977812460973,728.259583294857,971.012777726476
"20210309_142113_6yadf","20/04/1996","TS","Yes","stimuli/Ebbinghaus_str-0.33_diff-0.33.png",-0.33,-0.33,510.144999949262,"arrowright","ebbinghaus","arrowright",22,611,TRUE,2,3,0.75,573.398749984335,571.698333291958,762.264444389277,"Yes","0.0.1","09/03/2021 14:21:13","20210309","142113",8,1536,722,"1536x722",1536,864,"1536x864",24,24,FALSE,"Netscape","Mozilla","Gecko","5.0 (Windows NT 10.0; Win64; x64) AppleWebKit/537.36 (KHTML, like Gecko) Chrome/88.0.4324.190 Safari/537.36","Mozilla/5.0 (Windows NT 10.0; Win64; x64) AppleWebKit/537.36 (KHTML, like Gecko) Chrome/88.0.4324.190 Safari/537.36","Win32","en-US",982.169999973848,6376.81000004523,2478.54500007816,0.75,726.977812460973,728.259583294857,971.012777726476
"20210309_142113_6yadf","20/04/1996","TS","Yes","stimuli/Ebbinghaus_str0.33_diff0.33.png",0.33,0.33,578.500000061467,"arrowright","ebbinghaus","arrowleft",24,405,FALSE,2,4,0.75,573.398749984335,571.698333291958,762.264444389277,"Yes","0.0.1","09/03/2021 14:21:13","20210309","142113",8,1536,722,"1536x722",1536,864,"1536x864",24,24,FALSE,"Netscape","Mozilla","Gecko","5.0 (Windows NT 10.0; Win64; x64) AppleWebKit/537.36 (KHTML, like Gecko) Chrome/88.0.4324.190 Safari/537.36","Mozilla/5.0 (Windows NT 10.0; Win64; x64) AppleWebKit/537.36 (KHTML, like Gecko) Chrome/88.0.4324.190 Safari/537.36","Win32","en-US",982.169999973848,6376.81000004523,2478.54500007816,0.75,726.977812460973,728.259583294857,971.012777726476
"20210309_142113_6yadf","20/04/1996","TS","Yes","stimuli/MullerLyer_str50.0_diff-0.1.png",50,-0.1,1031.19499981403,"arrowup","mullerlyer","arrowdown",29,2321,FALSE,3,1,0.75,881.068749935366,831.026666642477,1108.0355555233,"Yes","0.0.1","09/03/2021 14:21:13","20210309","142113",8,1536,722,"1536x722",1536,864,"1536x864",24,24,FALSE,"Netscape","Mozilla","Gecko","5.0 (Windows NT 10.0; Win64; x64) AppleWebKit/537.36 (KHTML, like Gecko) Chrome/88.0.4324.190 Safari/537.36","Mozilla/5.0 (Windows NT 10.0; Win64; x64) AppleWebKit/537.36 (KHTML, like Gecko) Chrome/88.0.4324.190 Safari/537.36","Win32","en-US",982.169999973848,6376.81000004523,2478.54500007816,0.75,726.977812460973,728.259583294857,971.012777726476
"20210309_142113_6yadf","20/04/1996","TS","Yes","stimuli/MullerLyer_str16.67_diff-0.1.png",16.67,-0.1,797.305000014603,"arrowdown","mullerlyer","arrowdown",31,303,TRUE,3,2,0.75,881.068749935366,831.026666642477,1108.0355555233,"Yes","0.0.1","09/03/2021 14:21:13","20210309","142113",8,1536,722,"1536x722",1536,864,"1536x864",24,24,FALSE,"Netscape","Mozilla","Gecko","5.0 (Windows NT 10.0; Win64; x64) AppleWebKit/537.36 (KHTML, like Gecko) Chrome/88.0.4324.190 Safari/537.36","Mozilla/5.0 (Windows NT 10.0; Win64; x64) AppleWebKit/537.36 (KHTML, like Gecko) Chrome/88.0.4324.190 Safari/537.36","Win32","en-US",982.169999973848,6376.81000004523,2478.54500007816,0.75,726.977812460973,728.259583294857,971.012777726476
"20210309_142113_6yadf","20/04/1996","TS","Yes","stimuli/MullerLyer_str16.67_diff0.1.png",16.67,0.1,636.410000035539,"arrowup","mullerlyer","arrowup",33,526,TRUE,3,3,0.75,881.068749935366,831.026666642477,1108.0355555233,"Yes","0.0.1","09/03/2021 14:21:13","20210309","142113",8,1536,722,"1536x722",1536,864,"1536x864",24,24,FALSE,"Netscape","Mozilla","Gecko","5.0 (Windows NT 10.0; Win64; x64) AppleWebKit/537.36 (KHTML, like Gecko) Chrome/88.0.4324.190 Safari/537.36","Mozilla/5.0 (Windows NT 10.0; Win64; x64) AppleWebKit/537.36 (KHTML, like Gecko) Chrome/88.0.4324.190 Safari/537.36","Win32","en-US",982.169999973848,6376.81000004523,2478.54500007816,0.75,726.977812460973,728.259583294857,971.012777726476
"20210309_142113_6yadf","20/04/1996","TS","Yes","stimuli/MullerLyer_str50.0_diff0.1.png",50,0.1,1059.36499987729,"arrowup","mullerlyer","arrowup",35,560,TRUE,3,4,0.75,881.068749935366,831.026666642477,1108.0355555233,"Yes","0.0.1","09/03/2021 14:21:13","20210309","142113",8,1536,722,"1536x722",1536,864,"1536x864",24,24,FALSE,"Netscape","Mozilla","Gecko","5.0 (Windows NT 10.0; Win64; x64) AppleWebKit/537.36 (KHTML, like Gecko) Chrome/88.0.4324.190 Safari/537.36","Mozilla/5.0 (Windows NT 10.0; Win64; x64) AppleWebKit/537.36 (KHTML, like Gecko) Chrome/88.0.4324.190 Safari/537.36","Win32","en-US",982.169999973848,6376.81000004523,2478.54500007816,0.75,726.977812460973,728.259583294857,971.012777726476
"20210309_142113_6yadf","20/04/1996","TS","Yes","stimuli/Ponzo_str-6.67_diff-0.3.png",-6.67,-0.3,648.934999946505,"arrowup","ponzo","arrowdown",40,2617,FALSE,4,1,0.75,683.459999971092,694.968333312621,926.624444416828,"Yes","0.0.1","09/03/2021 14:21:13","20210309","142113",8,1536,722,"1536x722",1536,864,"1536x864",24,24,FALSE,"Netscape","Mozilla","Gecko","5.0 (Windows NT 10.0; Win64; x64) AppleWebKit/537.36 (KHTML, like Gecko) Chrome/88.0.4324.190 Safari/537.36","Mozilla/5.0 (Windows NT 10.0; Win64; x64) AppleWebKit/537.36 (KHTML, like Gecko) Chrome/88.0.4324.190 Safari/537.36","Win32","en-US",982.169999973848,6376.81000004523,2478.54500007816,0.75,726.977812460973,728.259583294857,971.012777726476
"20210309_142113_6yadf","20/04/1996","TS","Yes","stimuli/Ponzo_str-20.0_diff0.3.png",-20,0.3,712.615000084043,"arrowup","ponzo","arrowup",42,314,TRUE,4,2,0.75,683.459999971092,694.968333312621,926.624444416828,"Yes","0.0.1","09/03/2021 14:21:13","20210309","142113",8,1536,722,"1536x722",1536,864,"1536x864",24,24,FALSE,"Netscape","Mozilla","Gecko","5.0 (Windows NT 10.0; Win64; x64) AppleWebKit/537.36 (KHTML, like Gecko) Chrome/88.0.4324.190 Safari/537.36","Mozilla/5.0 (Windows NT 10.0; Win64; x64) AppleWebKit/537.36 (KHTML, like Gecko) Chrome/88.0.4324.190 Safari/537.36","Win32","en-US",982.169999973848,6376.81000004523,2478.54500007816,0.75,726.977812460973,728.259583294857,971.012777726476
"20210309_142113_6yadf","20/04/1996","TS","Yes","stimuli/Ponzo_str-20.0_diff-0.3.png",-20,-0.3,677.554999943823,"arrowdown","ponzo","arrowdown",44,343,TRUE,4,3,0.75,683.459999971092,694.968333312621,926.624444416828,"Yes","0.0.1","09/03/2021 14:21:13","20210309","142113",8,1536,722,"1536x722",1536,864,"1536x864",24,24,FALSE,"Netscape","Mozilla","Gecko","5.0 (Windows NT 10.0; Win64; x64) AppleWebKit/537.36 (KHTML, like Gecko) Chrome/88.0.4324.190 Safari/537.36","Mozilla/5.0 (Windows NT 10.0; Win64; x64) AppleWebKit/537.36 (KHTML, like Gecko) Chrome/88.0.4324.190 Safari/537.36","Win32","en-US",982.169999973848,6376.81000004523,2478.54500007816,0.75,726.977812460973,728.259583294857,971.012777726476
"20210309_142113_6yadf","20/04/1996","TS","Yes","stimuli/Ponzo_str-6.67_diff0.3.png",-6.67,0.3,694.734999909997,"arrowup","ponzo","arrowup",46,668,TRUE,4,4,0.75,683.459999971092,694.968333312621,926.624444416828,"Yes","0.0.1","09/03/2021 14:21:13","20210309","142113",8,1536,722,"1536x722",1536,864,"1536x864",24,24,FALSE,"Netscape","Mozilla","Gecko","5.0 (Windows NT 10.0; Win64; x64) AppleWebKit/537.36 (KHTML, like Gecko) Chrome/88.0.4324.190 Safari/537.36","Mozilla/5.0 (Windows NT 10.0; Win64; x64) AppleWebKit/537.36 (KHTML, like Gecko) Chrome/88.0.4324.190 Safari/537.36","Win32","en-US",982.169999973848,6376.81000004523,2478.54500007816,0.75,726.977812460973,728.259583294857,971.012777726476
"20210310_182854_hqvma","","","Yes","stimuli/Delboeuf_str0.33_diff0.33.png",0.33,0.33,1180.11500011198,"arrowleft","delboeuf","arrowleft",7,2754,TRUE,1,1,0.8125,592.095937507111,602.183076929158,741.148402374348,"Yes","0.0.1","10/03/2021 18:28:54","20210310","182854",8,1536,722,"1536x722",1536,864,"1536x864",24,24,FALSE,"Netscape","Mozilla","Gecko","5.0 (Windows NT 10.0; Win64; x64) AppleWebKit/537.36 (KHTML, like Gecko) Chrome/89.0.4389.82 Safari/537.36","Mozilla/5.0 (Windows NT 10.0; Win64; x64) AppleWebKit/537.36 (KHTML, like Gecko) Chrome/89.0.4389.82 Safari/537.36","Win32","en-US",437.109999824315,476.685000117868,1586.62499999627,0.625,637.996093752008,598.697624995839,957.916199993342
"20210310_182854_hqvma","","","Yes","stimuli/Delboeuf_str0.33_diff-1.0.png",0.33,-1,574.534999905154,"arrowright","delboeuf","arrowright",9,518,TRUE,1,2,0.8125,592.095937507111,602.183076929158,741.148402374348,"Yes","0.0.1","10/03/2021 18:28:54","20210310","182854",8,1536,722,"1536x722",1536,864,"1536x864",24,24,FALSE,"Netscape","Mozilla","Gecko","5.0 (Windows NT 10.0; Win64; x64) AppleWebKit/537.36 (KHTML, like Gecko) Chrome/89.0.4389.82 Safari/537.36","Mozilla/5.0 (Windows NT 10.0; Win64; x64) AppleWebKit/537.36 (KHTML, like Gecko) Chrome/89.0.4389.82 Safari/537.36","Win32","en-US",437.109999824315,476.685000117868,1586.62499999627,0.625,637.996093752008,598.697624995839,957.916199993342
"20210310_182854_hqvma","","","Yes","stimuli/Delboeuf_str-1.0_diff-1.0.png",-1,-1,615.745000075549,"arrowright","delboeuf","arrowright",11,602,TRUE,1,3,0.8125,592.095937507111,602.183076929158,741.148402374348,"Yes","0.0.1","10/03/2021 18:28:54","20210310","182854",8,1536,722,"1536x722",1536,864,"1536x864",24,24,FALSE,"Netscape","Mozilla","Gecko","5.0 (Windows NT 10.0; Win64; x64) AppleWebKit/537.36 (KHTML, like Gecko) Chrome/89.0.4389.82 Safari/537.36","Mozilla/5.0 (Windows NT 10.0; Win64; x64) AppleWebKit/537.36 (KHTML, like Gecko) Chrome/89.0.4389.82 Safari/537.36","Win32","en-US",437.109999824315,476.685000117868,1586.62499999627,0.625,637.996093752008,598.697624995839,957.916199993342
"20210310_182854_hqvma","","","Yes","stimuli/Delboeuf_str0.33_diff1.0.png",0.33,1,598.549999995157,"arrowleft","delboeuf","arrowleft",13,381,TRUE,1,4,0.8125,592.095937507111,602.183076929158,741.148402374348,"Yes","0.0.1","10/03/2021 18:28:54","20210310","182854",8,1536,722,"1536x722",1536,864,"1536x864",24,24,FALSE,"Netscape","Mozilla","Gecko","5.0 (Windows NT 10.0; Win64; x64) AppleWebKit/537.36 (KHTML, like Gecko) Chrome/89.0.4389.82 Safari/537.36","Mozilla/5.0 (Windows NT 10.0; Win64; x64) AppleWebKit/537.36 (KHTML, like Gecko) Chrome/89.0.4389.82 Safari/537.36","Win32","en-US",437.109999824315,476.685000117868,1586.62499999627,0.625,637.996093752008,598.697624995839,957.916199993342
"20210310_182854_hqvma","","","Yes","stimuli/Delboeuf_str-0.33_diff1.0.png",-0.33,1,624.190000118688,"arrowleft","delboeuf","arrowleft",15,478,TRUE,1,5,0.8125,592.095937507111,602.183076929158,741.148402374348,"Yes","0.0.1","10/03/2021 18:28:54","20210310","182854",8,1536,722,"1536x722",1536,864,"1536x864",24,24,FALSE,"Netscape","Mozilla","Gecko","5.0 (Windows NT 10.0; Win64; x64) AppleWebKit/537.36 (KHTML, like Gecko) Chrome/89.0.4389.82 Safari/537.36","Mozilla/5.0 (Windows NT 10.0; Win64; x64) AppleWebKit/537.36 (KHTML, like Gecko) Chrome/89.0.4389.82 Safari/537.36","Win32","en-US",437.109999824315,476.685000117868,1586.62499999627,0.625,637.996093752008,598.697624995839,957.916199993342
"20210310_182854_hqvma","","","Yes","stimuli/Delboeuf_str1.0_diff0.33.png",1,0.33,334.129999857396,"arrowleft","delboeuf","arrowleft",17,609,TRUE,1,6,0.8125,592.095937507111,602.183076929158,741.148402374348,"Yes","0.0.1","10/03/2021 18:28:54","20210310","182854",8,1536,722,"1536x722",1536,864,"1536x864",24,24,FALSE,"Netscape","Mozilla","Gecko","5.0 (Windows NT 10.0; Win64; x64) AppleWebKit/537.36 (KHTML, like Gecko) Chrome/89.0.4389.82 Safari/537.36","Mozilla/5.0 (Windows NT 10.0; Win64; x64) AppleWebKit/537.36 (KHTML, like Gecko) Chrome/89.0.4389.82 Safari/537.36","Win32","en-US",437.109999824315,476.685000117868,1586.62499999627,0.625,637.996093752008,598.697624995839,957.916199993342
"20210310_182854_hqvma","","","Yes","stimuli/Delboeuf_str1.0_diff-1.0.png",1,-1,559.405000181869,"arrowright","delboeuf","arrowright",19,275,TRUE,1,7,0.8125,592.095937507111,602.183076929158,741.148402374348,"Yes","0.0.1","10/03/2021 18:28:54","20210310","182854",8,1536,722,"1536x722",1536,864,"1536x864",24,24,FALSE,"Netscape","Mozilla","Gecko","5.0 (Windows NT 10.0; Win64; x64) AppleWebKit/537.36 (KHTML, like Gecko) Chrome/89.0.4389.82 Safari/537.36","Mozilla/5.0 (Windows NT 10.0; Win64; x64) AppleWebKit/537.36 (KHTML, like Gecko) Chrome/89.0.4389.82 Safari/537.36","Win32","en-US",437.109999824315,476.685000117868,1586.62499999627,0.625,637.996093752008,598.697624995839,957.916199993342
"20210310_182854_hqvma","","","Yes","stimuli/Delboeuf_str-0.33_diff0.33.png",-0.33,0.33,590.284999925643,"arrowright","delboeuf","arrowleft",21,360,FALSE,1,8,0.8125,592.095937507111,602.183076929158,741.148402374348,"Yes","0.0.1","10/03/2021 18:28:54","20210310","182854",8,1536,722,"1536x722",1536,864,"1536x864",24,24,FALSE,"Netscape","Mozilla","Gecko","5.0 (Windows NT 10.0; Win64; x64) AppleWebKit/537.36 (KHTML, like Gecko) Chrome/89.0.4389.82 Safari/537.36","Mozilla/5.0 (Windows NT 10.0; Win64; x64) AppleWebKit/537.36 (KHTML, like Gecko) Chrome/89.0.4389.82 Safari/537.36","Win32","en-US",437.109999824315,476.685000117868,1586.62499999627,0.625,637.996093752008,598.697624995839,957.916199993342
"20210310_182854_hqvma","","","Yes","stimuli/Delboeuf_str-1.0_diff-0.33.png",-1,-0.33,490.485000191256,"arrowright","delboeuf","arrowright",23,462,TRUE,1,9,0.8125,592.095937507111,602.183076929158,741.148402374348,"Yes","0.0.1","10/03/2021 18:28:54","20210310","182854",8,1536,722,"1536x722",1536,864,"1536x864",24,24,FALSE,"Netscape","Mozilla","Gecko","5.0 (Windows NT 10.0; Win64; x64) AppleWebKit/537.36 (KHTML, like Gecko) Chrome/89.0.4389.82 Safari/537.36","Mozilla/5.0 (Windows NT 10.0; Win64; x64) AppleWebKit/537.36 (KHTML, like Gecko) Chrome/89.0.4389.82 Safari/537.36","Win32","en-US",437.109999824315,476.685000117868,1586.62499999627,0.625,637.996093752008,598.697624995839,957.916199993342
"20210310_182854_hqvma","","","Yes","stimuli/Delboeuf_str-1.0_diff0.33.png",-1,0.33,514.094999991357,"arrowright","delboeuf","arrowleft",25,493,FALSE,1,10,0.8125,592.095937507111,602.183076929158,741.148402374348,"Yes","0.0.1","10/03/2021 18:28:54","20210310","182854",8,1536,722,"1536x722",1536,864,"1536x864",24,24,FALSE,"Netscape","Mozilla","Gecko","5.0 (Windows NT 10.0; Win64; x64) AppleWebKit/537.36 (KHTML, like Gecko) Chrome/89.0.4389.82 Safari/537.36","Mozilla/5.0 (Windows NT 10.0; Win64; x64) AppleWebKit/537.36 (KHTML, like Gecko) Chrome/89.0.4389.82 Safari/537.36","Win32","en-US",437.109999824315,476.685000117868,1586.62499999627,0.625,637.996093752008,598.697624995839,957.916199993342
"20210310_182854_hqvma","","","Yes","stimuli/Delboeuf_str-1.0_diff1.0.png",-1,1,536.659999983385,"arrowleft","delboeuf","arrowleft",27,441,TRUE,1,11,0.8125,592.095937507111,602.183076929158,741.148402374348,"Yes","0.0.1","10/03/2021 18:28:54","20210310","182854",8,1536,722,"1536x722",1536,864,"1536x864",24,24,FALSE,"Netscape","Mozilla","Gecko","5.0 (Windows NT 10.0; Win64; x64) AppleWebKit/537.36 (KHTML, like Gecko) Chrome/89.0.4389.82 Safari/537.36","Mozilla/5.0 (Windows NT 10.0; Win64; x64) AppleWebKit/537.36 (KHTML, like Gecko) Chrome/89.0.4389.82 Safari/537.36","Win32","en-US",437.109999824315,476.685000117868,1586.62499999627,0.625,637.996093752008,598.697624995839,957.916199993342
"20210310_182854_hqvma","","","Yes","stimuli/Delboeuf_str1.0_diff-0.33.png",1,-0.33,611.659999936819,"arrowright","delboeuf","arrowright",29,733,TRUE,1,12,0.8125,592.095937507111,602.183076929158,741.148402374348,"Yes","0.0.1","10/03/2021 18:28:54","20210310","182854",8,1536,722,"1536x722",1536,864,"1536x864",24,24,FALSE,"Netscape","Mozilla","Gecko","5.0 (Windows NT 10.0; Win64; x64) AppleWebKit/537.36 (KHTML, like Gecko) Chrome/89.0.4389.82 Safari/537.36","Mozilla/5.0 (Windows NT 10.0; Win64; x64) AppleWebKit/537.36 (KHTML, like Gecko) Chrome/89.0.4389.82 Safari/537.36","Win32","en-US",437.109999824315,476.685000117868,1586.62499999627,0.625,637.996093752008,598.697624995839,957.916199993342
"20210310_182854_hqvma","","","Yes","stimuli/Delboeuf_str-0.33_diff-1.0.png",-0.33,-1,575.375000014901,"arrowright","delboeuf","arrowright",31,536,TRUE,1,13,0.8125,592.095937507111,602.183076929158,741.148402374348,"Yes","0.0.1","10/03/2021 18:28:54","20210310","182854",8,1536,722,"1536x722",1536,864,"1536x864",24,24,FALSE,"Netscape","Mozilla","Gecko","5.0 (Windows NT 10.0; Win64; x64) AppleWebKit/537.36 (KHTML, like Gecko) Chrome/89.0.4389.82 Safari/537.36","Mozilla/5.0 (Windows NT 10.0; Win64; x64) AppleWebKit/537.36 (KHTML, like Gecko) Chrome/89.0.4389.82 Safari/537.36","Win32","en-US",437.109999824315,476.685000117868,1586.62499999627,0.625,637.996093752008,598.697624995839,957.916199993342
"20210310_182854_hqvma","","","Yes","stimuli/Delboeuf_str1.0_diff1.0.png",1,1,540.775000117719,"arrowright","delboeuf","arrowleft",33,723,FALSE,1,14,0.8125,592.095937507111,602.183076929158,741.148402374348,"Yes","0.0.1","10/03/2021 18:28:54","20210310","182854",8,1536,722,"1536x722",1536,864,"1536x864",24,24,FALSE,"Netscape","Mozilla","Gecko","5.0 (Windows NT 10.0; Win64; x64) AppleWebKit/537.36 (KHTML, like Gecko) Chrome/89.0.4389.82 Safari/537.36","Mozilla/5.0 (Windows NT 10.0; Win64; x64) AppleWebKit/537.36 (KHTML, like Gecko) Chrome/89.0.4389.82 Safari/537.36","Win32","en-US",437.109999824315,476.685000117868,1586.62499999627,0.625,637.996093752008,598.697624995839,957.916199993342
"20210310_182854_hqvma","","","Yes","stimuli/Delboeuf_str-0.33_diff-0.33.png",-0.33,-0.33,888.799999840558,"arrowright","delboeuf","arrowright",35,413,TRUE,1,15,0.8125,592.095937507111,602.183076929158,741.148402374348,"Yes","0.0.1","10/03/2021 18:28:54","20210310","182854",8,1536,722,"1536x722",1536,864,"1536x864",24,24,FALSE,"Netscape","Mozilla","Gecko","5.0 (Windows NT 10.0; Win64; x64) AppleWebKit/537.36 (KHTML, like Gecko) Chrome/89.0.4389.82 Safari/537.36","Mozilla/5.0 (Windows NT 10.0; Win64; x64) AppleWebKit/537.36 (KHTML, like Gecko) Chrome/89.0.4389.82 Safari/537.36","Win32","en-US",437.109999824315,476.685000117868,1586.62499999627,0.625,637.996093752008,598.697624995839,957.916199993342
"20210310_182854_hqvma","","","Yes","stimuli/Delboeuf_str0.33_diff-0.33.png",0.33,-0.33,238.729999866337,"arrowright","delboeuf","arrowright",37,637,TRUE,1,16,0.8125,592.095937507111,602.183076929158,741.148402374348,"Yes","0.0.1","10/03/2021 18:28:54","20210310","182854",8,1536,722,"1536x722",1536,864,"1536x864",24,24,FALSE,"Netscape","Mozilla","Gecko","5.0 (Windows NT 10.0; Win64; x64) AppleWebKit/537.36 (KHTML, like Gecko) Chrome/89.0.4389.82 Safari/537.36","Mozilla/5.0 (Windows NT 10.0; Win64; x64) AppleWebKit/537.36 (KHTML, like Gecko) Chrome/89.0.4389.82 Safari/537.36","Win32","en-US",437.109999824315,476.685000117868,1586.62499999627,0.625,637.996093752008,598.697624995839,957.916199993342
"20210310_182854_hqvma","","","Yes","stimuli/Ebbinghaus_str0.33_diff-0.33.png",0.33,-0.33,587.254999903962,"arrowright","ebbinghaus","arrowright",42,2705,TRUE,2,1,0.625,769.153125016601,667.442499985918,1067.90799997747,"Yes","0.0.1","10/03/2021 18:28:54","20210310","182854",8,1536,722,"1536x722",1536,864,"1536x864",24,24,FALSE,"Netscape","Mozilla","Gecko","5.0 (Windows NT 10.0; Win64; x64) AppleWebKit/537.36 (KHTML, like Gecko) Chrome/89.0.4389.82 Safari/537.36","Mozilla/5.0 (Windows NT 10.0; Win64; x64) AppleWebKit/537.36 (KHTML, like Gecko) Chrome/89.0.4389.82 Safari/537.36","Win32","en-US",437.109999824315,476.685000117868,1586.62499999627,0.625,637.996093752008,598.697624995839,957.916199993342
"20210310_182854_hqvma","","","Yes","stimuli/Ebbinghaus_str-0.33_diff1.0.png",-0.33,1,377.005000133067,"arrowright","ebbinghaus","arrowleft",44,524,FALSE,2,2,0.625,769.153125016601,667.442499985918,1067.90799997747,"Yes","0.0.1","10/03/2021 18:28:54","20210310","182854",8,1536,722,"1536x722",1536,864,"1536x864",24,24,FALSE,"Netscape","Mozilla","Gecko","5.0 (Windows NT 10.0; Win64; x64) AppleWebKit/537.36 (KHTML, like Gecko) Chrome/89.0.4389.82 Safari/537.36","Mozilla/5.0 (Windows NT 10.0; Win64; x64) AppleWebKit/537.36 (KHTML, like Gecko) Chrome/89.0.4389.82 Safari/537.36","Win32","en-US",437.109999824315,476.685000117868,1586.62499999627,0.625,637.996093752008,598.697624995839,957.916199993342
"20210310_182854_hqvma","","","Yes","stimuli/Ebbinghaus_str-1.0_diff-1.0.png",-1,-1,567.084999987856,"arrowleft","ebbinghaus","arrowright",46,317,FALSE,2,3,0.625,769.153125016601,667.442499985918,1067.90799997747,"Yes","0.0.1","10/03/2021 18:28:54","20210310","182854",8,1536,722,"1536x722",1536,864,"1536x864",24,24,FALSE,"Netscape","Mozilla","Gecko","5.0 (Windows NT 10.0; Win64; x64) AppleWebKit/537.36 (KHTML, like Gecko) Chrome/89.0.4389.82 Safari/537.36","Mozilla/5.0 (Windows NT 10.0; Win64; x64) AppleWebKit/537.36 (KHTML, like Gecko) Chrome/89.0.4389.82 Safari/537.36","Win32","en-US",437.109999824315,476.685000117868,1586.62499999627,0.625,637.996093752008,598.697624995839,957.916199993342
"20210310_182854_hqvma","","","Yes","stimuli/Ebbinghaus_str0.33_diff0.33.png",0.33,0.33,479.520000051707,"arrowright","ebbinghaus","arrowleft",48,501,FALSE,2,4,0.625,769.153125016601,667.442499985918,1067.90799997747,"Yes","0.0.1","10/03/2021 18:28:54","20210310","182854",8,1536,722,"1536x722",1536,864,"1536x864",24,24,FALSE,"Netscape","Mozilla","Gecko","5.0 (Windows NT 10.0; Win64; x64) AppleWebKit/537.36 (KHTML, like Gecko) Chrome/89.0.4389.82 Safari/537.36","Mozilla/5.0 (Windows NT 10.0; Win64; x64) AppleWebKit/537.36 (KHTML, like Gecko) Chrome/89.0.4389.82 Safari/537.36","Win32","en-US",437.109999824315,476.685000117868,1586.62499999627,0.625,637.996093752008,598.697624995839,957.916199993342
"20210310_182854_hqvma","","","Yes","stimuli/Ebbinghaus_str-1.0_diff1.0.png",-1,1,608.245000010356,"arrowleft","ebbinghaus","arrowleft",50,530,TRUE,2,5,0.625,769.153125016601,667.442499985918,1067.90799997747,"Yes","0.0.1","10/03/2021 18:28:54","20210310","182854",8,1536,722,"1536x722",1536,864,"1536x864",24,24,FALSE,"Netscape","Mozilla","Gecko","5.0 (Windows NT 10.0; Win64; x64) AppleWebKit/537.36 (KHTML, like Gecko) Chrome/89.0.4389.82 Safari/537.36","Mozilla/5.0 (Windows NT 10.0; Win64; x64) AppleWebKit/537.36 (KHTML, like Gecko) Chrome/89.0.4389.82 Safari/537.36","Win32","en-US",437.109999824315,476.685000117868,1586.62499999627,0.625,637.996093752008,598.697624995839,957.916199993342
"20210310_182854_hqvma","","","Yes","stimuli/Ebbinghaus_str-1.0_diff-0.33.png",-1,-0.33,670.990000013262,"arrowright","ebbinghaus","arrowright",52,455,TRUE,2,6,0.625,769.153125016601,667.442499985918,1067.90799997747,"Yes","0.0.1","10/03/2021 18:28:54","20210310","182854",8,1536,722,"1536x722",1536,864,"1536x864",24,24,FALSE,"Netscape","Mozilla","Gecko","5.0 (Windows NT 10.0; Win64; x64) AppleWebKit/537.36 (KHTML, like Gecko) Chrome/89.0.4389.82 Safari/537.36","Mozilla/5.0 (Windows NT 10.0; Win64; x64) AppleWebKit/537.36 (KHTML, like Gecko) Chrome/89.0.4389.82 Safari/537.36","Win32","en-US",437.109999824315,476.685000117868,1586.62499999627,0.625,637.996093752008,598.697624995839,957.916199993342
"20210310_182854_hqvma","","","Yes","stimuli/Ebbinghaus_str0.33_diff1.0.png",0.33,1,714.339999947697,"arrowleft","ebbinghaus","arrowleft",54,714,TRUE,2,7,0.625,769.153125016601,667.442499985918,1067.90799997747,"Yes","0.0.1","10/03/2021 18:28:54","20210310","182854",8,1536,722,"1536x722",1536,864,"1536x864",24,24,FALSE,"Netscape","Mozilla","Gecko","5.0 (Windows NT 10.0; Win64; x64) AppleWebKit/537.36 (KHTML, like Gecko) Chrome/89.0.4389.82 Safari/537.36","Mozilla/5.0 (Windows NT 10.0; Win64; x64) AppleWebKit/537.36 (KHTML, like Gecko) Chrome/89.0.4389.82 Safari/537.36","Win32","en-US",437.109999824315,476.685000117868,1586.62499999627,0.625,637.996093752008,598.697624995839,957.916199993342
"20210310_182854_hqvma","","","Yes","stimuli/Ebbinghaus_str0.33_diff-1.0.png",0.33,-1,840.250000124797,"arrowright","ebbinghaus","arrowright",56,564,TRUE,2,8,0.625,769.153125016601,667.442499985918,1067.90799997747,"Yes","0.0.1","10/03/2021 18:28:54","20210310","182854",8,1536,722,"1536x722",1536,864,"1536x864",24,24,FALSE,"Netscape","Mozilla","Gecko","5.0 (Windows NT 10.0; Win64; x64) AppleWebKit/537.36 (KHTML, like Gecko) Chrome/89.0.4389.82 Safari/537.36","Mozilla/5.0 (Windows NT 10.0; Win64; x64) AppleWebKit/537.36 (KHTML, like Gecko) Chrome/89.0.4389.82 Safari/537.36","Win32","en-US",437.109999824315,476.685000117868,1586.62499999627,0.625,637.996093752008,598.697624995839,957.916199993342
"20210310_182854_hqvma","","","Yes","stimuli/Ebbinghaus_str1.0_diff1.0.png",1,1,453.815000131726,"arrowright","ebbinghaus","arrowleft",58,668,FALSE,2,9,0.625,769.153125016601,667.442499985918,1067.90799997747,"Yes","0.0.1","10/03/2021 18:28:54","20210310","182854",8,1536,722,"1536x722",1536,864,"1536x864",24,24,FALSE,"Netscape","Mozilla","Gecko","5.0 (Windows NT 10.0; Win64; x64) AppleWebKit/537.36 (KHTML, like Gecko) Chrome/89.0.4389.82 Safari/537.36","Mozilla/5.0 (Windows NT 10.0; Win64; x64) AppleWebKit/537.36 (KHTML, like Gecko) Chrome/89.0.4389.82 Safari/537.36","Win32","en-US",437.109999824315,476.685000117868,1586.62499999627,0.625,637.996093752008,598.697624995839,957.916199993342
"20210310_182854_hqvma","","","Yes","stimuli/Ebbinghaus_str1.0_diff-1.0.png",1,-1,640.099999960512,"arrowright","ebbinghaus","arrowright",60,505,TRUE,2,10,0.625,769.153125016601,667.442499985918,1067.90799997747,"Yes","0.0.1","10/03/2021 18:28:54","20210310","182854",8,1536,722,"1536x722",1536,864,"1536x864",24,24,FALSE,"Netscape","Mozilla","Gecko","5.0 (Windows NT 10.0; Win64; x64) AppleWebKit/537.36 (KHTML, like Gecko) Chrome/89.0.4389.82 Safari/537.36","Mozilla/5.0 (Windows NT 10.0; Win64; x64) AppleWebKit/537.36 (KHTML, like Gecko) Chrome/89.0.4389.82 Safari/537.36","Win32","en-US",437.109999824315,476.685000117868,1586.62499999627,0.625,637.996093752008,598.697624995839,957.916199993342
"20210310_182854_hqvma","","","Yes","stimuli/Ebbinghaus_str-0.33_diff-0.33.png",-0.33,-0.33,612.845000112429,"arrowright","ebbinghaus","arrowright",62,632,TRUE,2,11,0.625,769.153125016601,667.442499985918,1067.90799997747,"Yes","0.0.1","10/03/2021 18:28:54","20210310","182854",8,1536,722,"1536x722",1536,864,"1536x864",24,24,FALSE,"Netscape","Mozilla","Gecko","5.0 (Windows NT 10.0; Win64; x64) AppleWebKit/537.36 (KHTML, like Gecko) Chrome/89.0.4389.82 Safari/537.36","Mozilla/5.0 (Windows NT 10.0; Win64; x64) AppleWebKit/537.36 (KHTML, like Gecko) Chrome/89.0.4389.82 Safari/537.36","Win32","en-US",437.109999824315,476.685000117868,1586.62499999627,0.625,637.996093752008,598.697624995839,957.916199993342
"20210310_182854_hqvma","","","Yes","stimuli/Ebbinghaus_str-1.0_diff0.33.png",-1,0.33,3215.31999995932,"arrowright","ebbinghaus","arrowleft",64,361,FALSE,2,12,0.625,769.153125016601,667.442499985918,1067.90799997747,"Yes","0.0.1","10/03/2021 18:28:54","20210310","182854",8,1536,722,"1536x722",1536,864,"1536x864",24,24,FALSE,"Netscape","Mozilla","Gecko","5.0 (Windows NT 10.0; Win64; x64) AppleWebKit/537.36 (KHTML, like Gecko) Chrome/89.0.4389.82 Safari/537.36","Mozilla/5.0 (Windows NT 10.0; Win64; x64) AppleWebKit/537.36 (KHTML, like Gecko) Chrome/89.0.4389.82 Safari/537.36","Win32","en-US",437.109999824315,476.685000117868,1586.62499999627,0.625,637.996093752008,598.697624995839,957.916199993342
"20210310_182854_hqvma","","","Yes","stimuli/Ebbinghaus_str-0.33_diff-1.0.png",-0.33,-1,730.054999934509,"arrowright","ebbinghaus","arrowright",66,285,TRUE,2,13,0.625,769.153125016601,667.442499985918,1067.90799997747,"Yes","0.0.1","10/03/2021 18:28:54","20210310","182854",8,1536,722,"1536x722",1536,864,"1536x864",24,24,FALSE,"Netscape","Mozilla","Gecko","5.0 (Windows NT 10.0; Win64; x64) AppleWebKit/537.36 (KHTML, like Gecko) Chrome/89.0.4389.82 Safari/537.36","Mozilla/5.0 (Windows NT 10.0; Win64; x64) AppleWebKit/537.36 (KHTML, like Gecko) Chrome/89.0.4389.82 Safari/537.36","Win32","en-US",437.109999824315,476.685000117868,1586.62499999627,0.625,637.996093752008,598.697624995839,957.916199993342
"20210310_182854_hqvma","","","Yes","stimuli/Ebbinghaus_str-0.33_diff0.33.png",-0.33,0.33,539.280000142753,"arrowright","ebbinghaus","arrowleft",68,318,FALSE,2,14,0.625,769.153125016601,667.442499985918,1067.90799997747,"Yes","0.0.1","10/03/2021 18:28:54","20210310","182854",8,1536,722,"1536x722",1536,864,"1536x864",24,24,FALSE,"Netscape","Mozilla","Gecko","5.0 (Windows NT 10.0; Win64; x64) AppleWebKit/537.36 (KHTML, like Gecko) Chrome/89.0.4389.82 Safari/537.36","Mozilla/5.0 (Windows NT 10.0; Win64; x64) AppleWebKit/537.36 (KHTML, like Gecko) Chrome/89.0.4389.82 Safari/537.36","Win32","en-US",437.109999824315,476.685000117868,1586.62499999627,0.625,637.996093752008,598.697624995839,957.916199993342
"20210310_182854_hqvma","","","Yes","stimuli/Ebbinghaus_str1.0_diff-0.33.png",1,-0.33,534.014999866486,"arrowright","ebbinghaus","arrowright",70,399,TRUE,2,15,0.625,769.153125016601,667.442499985918,1067.90799997747,"Yes","0.0.1","10/03/2021 18:28:54","20210310","182854",8,1536,722,"1536x722",1536,864,"1536x864",24,24,FALSE,"Netscape","Mozilla","Gecko","5.0 (Windows NT 10.0; Win64; x64) AppleWebKit/537.36 (KHTML, like Gecko) Chrome/89.0.4389.82 Safari/537.36","Mozilla/5.0 (Windows NT 10.0; Win64; x64) AppleWebKit/537.36 (KHTML, like Gecko) Chrome/89.0.4389.82 Safari/537.36","Win32","en-US",437.109999824315,476.685000117868,1586.62499999627,0.625,637.996093752008,598.697624995839,957.916199993342
"20210310_182854_hqvma","","","Yes","stimuli/Ebbinghaus_str1.0_diff0.33.png",1,0.33,736.329999985173,"arrowleft","ebbinghaus","arrowleft",72,554,TRUE,2,16,0.625,769.153125016601,667.442499985918,1067.90799997747,"Yes","0.0.1","10/03/2021 18:28:54","20210310","182854",8,1536,722,"1536x722",1536,864,"1536x864",24,24,FALSE,"Netscape","Mozilla","Gecko","5.0 (Windows NT 10.0; Win64; x64) AppleWebKit/537.36 (KHTML, like Gecko) Chrome/89.0.4389.82 Safari/537.36","Mozilla/5.0 (Windows NT 10.0; Win64; x64) AppleWebKit/537.36 (KHTML, like Gecko) Chrome/89.0.4389.82 Safari/537.36","Win32","en-US",437.109999824315,476.685000117868,1586.62499999627,0.625,637.996093752008,598.697624995839,957.916199993342
"20210310_182854_hqvma","","","Yes","stimuli/MullerLyer_str-50.0_diff-0.3.png",-50,-0.3,607.924999902025,"arrowup","mullerlyer","arrowdown",77,2705,FALSE,3,1,0.4375,679.380937479436,653.320714265906,1493.30448975064,"Yes","0.0.1","10/03/2021 18:28:54","20210310","182854",8,1536,722,"1536x722",1536,864,"1536x864",24,24,FALSE,"Netscape","Mozilla","Gecko","5.0 (Windows NT 10.0; Win64; x64) AppleWebKit/537.36 (KHTML, like Gecko) Chrome/89.0.4389.82 Safari/537.36","Mozilla/5.0 (Windows NT 10.0; Win64; x64) AppleWebKit/537.36 (KHTML, like Gecko) Chrome/89.0.4389.82 Safari/537.36","Win32","en-US",437.109999824315,476.685000117868,1586.62499999627,0.625,637.996093752008,598.697624995839,957.916199993342
"20210310_182854_hqvma","","","Yes","stimuli/MullerLyer_str-16.67_diff0.1.png",-16.67,0.1,956.624999875203,"arrowdown","mullerlyer","arrowup",79,290,FALSE,3,2,0.4375,679.380937479436,653.320714265906,1493.30448975064,"Yes","0.0.1","10/03/2021 18:28:54","20210310","182854",8,1536,722,"1536x722",1536,864,"1536x864",24,24,FALSE,"Netscape","Mozilla","Gecko","5.0 (Windows NT 10.0; Win64; x64) AppleWebKit/537.36 (KHTML, like Gecko) Chrome/89.0.4389.82 Safari/537.36","Mozilla/5.0 (Windows NT 10.0; Win64; x64) AppleWebKit/537.36 (KHTML, like Gecko) Chrome/89.0.4389.82 Safari/537.36","Win32","en-US",437.109999824315,476.685000117868,1586.62499999627,0.625,637.996093752008,598.697624995839,957.916199993342
"20210310_182854_hqvma","","","Yes","stimuli/MullerLyer_str50.0_diff0.1.png",50,0.1,544.034999795258,"arrowup","mullerlyer","arrowup",81,474,TRUE,3,3,0.4375,679.380937479436,653.320714265906,1493.30448975064,"Yes","0.0.1","10/03/2021 18:28:54","20210310","182854",8,1536,722,"1536x722",1536,864,"1536x864",24,24,FALSE,"Netscape","Mozilla","Gecko","5.0 (Windows NT 10.0; Win64; x64) AppleWebKit/537.36 (KHTML, like Gecko) Chrome/89.0.4389.82 Safari/537.36","Mozilla/5.0 (Windows NT 10.0; Win64; x64) AppleWebKit/537.36 (KHTML, like Gecko) Chrome/89.0.4389.82 Safari/537.36","Win32","en-US",437.109999824315,476.685000117868,1586.62499999627,0.625,637.996093752008,598.697624995839,957.916199993342
"20210310_182854_hqvma","","","Yes","stimuli/MullerLyer_str16.67_diff0.3.png",16.67,0.3,1598.36499998346,"arrowup","mullerlyer","arrowup",83,321,TRUE,3,4,0.4375,679.380937479436,653.320714265906,1493.30448975064,"Yes","0.0.1","10/03/2021 18:28:54","20210310","182854",8,1536,722,"1536x722",1536,864,"1536x864",24,24,FALSE,"Netscape","Mozilla","Gecko","5.0 (Windows NT 10.0; Win64; x64) AppleWebKit/537.36 (KHTML, like Gecko) Chrome/89.0.4389.82 Safari/537.36","Mozilla/5.0 (Windows NT 10.0; Win64; x64) AppleWebKit/537.36 (KHTML, like Gecko) Chrome/89.0.4389.82 Safari/537.36","Win32","en-US",437.109999824315,476.685000117868,1586.62499999627,0.625,637.996093752008,598.697624995839,957.916199993342
"20210310_182854_hqvma","","","Yes","stimuli/MullerLyer_str-50.0_diff-0.1.png",-50,-0.1,317.479999968782,"arrowdown","mullerlyer","arrowdown",85,653,TRUE,3,5,0.4375,679.380937479436,653.320714265906,1493.30448975064,"Yes","0.0.1","10/03/2021 18:28:54","20210310","182854",8,1536,722,"1536x722",1536,864,"1536x864",24,24,FALSE,"Netscape","Mozilla","Gecko","5.0 (Windows NT 10.0; Win64; x64) AppleWebKit/537.36 (KHTML, like Gecko) Chrome/89.0.4389.82 Safari/537.36","Mozilla/5.0 (Windows NT 10.0; Win64; x64) AppleWebKit/537.36 (KHTML, like Gecko) Chrome/89.0.4389.82 Safari/537.36","Win32","en-US",437.109999824315,476.685000117868,1586.62499999627,0.625,637.996093752008,598.697624995839,957.916199993342
"20210310_182854_hqvma","","","Yes","stimuli/MullerLyer_str-16.67_diff-0.3.png",-16.67,-0.3,471.149999881163,"arrowup","mullerlyer","arrowdown",87,419,FALSE,3,6,0.4375,679.380937479436,653.320714265906,1493.30448975064,"Yes","0.0.1","10/03/2021 18:28:54","20210310","182854",8,1536,722,"1536x722",1536,864,"1536x864",24,24,FALSE,"Netscape","Mozilla","Gecko","5.0 (Windows NT 10.0; Win64; x64) AppleWebKit/537.36 (KHTML, like Gecko) Chrome/89.0.4389.82 Safari/537.36","Mozilla/5.0 (Windows NT 10.0; Win64; x64) AppleWebKit/537.36 (KHTML, like Gecko) Chrome/89.0.4389.82 Safari/537.36","Win32","en-US",437.109999824315,476.685000117868,1586.62499999627,0.625,637.996093752008,598.697624995839,957.916199993342
"20210310_182854_hqvma","","","Yes","stimuli/MullerLyer_str16.67_diff-0.1.png",16.67,-0.1,439.229999901727,"arrowdown","mullerlyer","arrowdown",89,382,TRUE,3,7,0.4375,679.380937479436,653.320714265906,1493.30448975064,"Yes","0.0.1","10/03/2021 18:28:54","20210310","182854",8,1536,722,"1536x722",1536,864,"1536x864",24,24,FALSE,"Netscape","Mozilla","Gecko","5.0 (Windows NT 10.0; Win64; x64) AppleWebKit/537.36 (KHTML, like Gecko) Chrome/89.0.4389.82 Safari/537.36","Mozilla/5.0 (Windows NT 10.0; Win64; x64) AppleWebKit/537.36 (KHTML, like Gecko) Chrome/89.0.4389.82 Safari/537.36","Win32","en-US",437.109999824315,476.685000117868,1586.62499999627,0.625,637.996093752008,598.697624995839,957.916199993342
"20210310_182854_hqvma","","","Yes","stimuli/MullerLyer_str-16.67_diff-0.1.png",-16.67,-0.1,464.30499991402,"arrowup","mullerlyer","arrowdown",91,480,FALSE,3,8,0.4375,679.380937479436,653.320714265906,1493.30448975064,"Yes","0.0.1","10/03/2021 18:28:54","20210310","182854",8,1536,722,"1536x722",1536,864,"1536x864",24,24,FALSE,"Netscape","Mozilla","Gecko","5.0 (Windows NT 10.0; Win64; x64) AppleWebKit/537.36 (KHTML, like Gecko) Chrome/89.0.4389.82 Safari/537.36","Mozilla/5.0 (Windows NT 10.0; Win64; x64) AppleWebKit/537.36 (KHTML, like Gecko) Chrome/89.0.4389.82 Safari/537.36","Win32","en-US",437.109999824315,476.685000117868,1586.62499999627,0.625,637.996093752008,598.697624995839,957.916199993342
"20210310_182854_hqvma","","","Yes","stimuli/MullerLyer_str50.0_diff-0.3.png",50,-0.3,511.545000132173,"arrowdown","mullerlyer","arrowdown",93,368,TRUE,3,9,0.4375,679.380937479436,653.320714265906,1493.30448975064,"Yes","0.0.1","10/03/2021 18:28:54","20210310","182854",8,1536,722,"1536x722",1536,864,"1536x864",24,24,FALSE,"Netscape","Mozilla","Gecko","5.0 (Windows NT 10.0; Win64; x64) AppleWebKit/537.36 (KHTML, like Gecko) Chrome/89.0.4389.82 Safari/537.36","Mozilla/5.0 (Windows NT 10.0; Win64; x64) AppleWebKit/537.36 (KHTML, like Gecko) Chrome/89.0.4389.82 Safari/537.36","Win32","en-US",437.109999824315,476.685000117868,1586.62499999627,0.625,637.996093752008,598.697624995839,957.916199993342
"20210310_182854_hqvma","","","Yes","stimuli/MullerLyer_str50.0_diff0.3.png",50,0.3,629.419999895617,"arrowup","mullerlyer","arrowup",95,626,TRUE,3,10,0.4375,679.380937479436,653.320714265906,1493.30448975064,"Yes","0.0.1","10/03/2021 18:28:54","20210310","182854",8,1536,722,"1536x722",1536,864,"1536x864",24,24,FALSE,"Netscape","Mozilla","Gecko","5.0 (Windows NT 10.0; Win64; x64) AppleWebKit/537.36 (KHTML, like Gecko) Chrome/89.0.4389.82 Safari/537.36","Mozilla/5.0 (Windows NT 10.0; Win64; x64) AppleWebKit/537.36 (KHTML, like Gecko) Chrome/89.0.4389.82 Safari/537.36","Win32","en-US",437.109999824315,476.685000117868,1586.62499999627,0.625,637.996093752008,598.697624995839,957.916199993342
"20210310_182854_hqvma","","","Yes","stimuli/MullerLyer_str16.67_diff0.1.png",16.67,0.1,1756.41999999061,"arrowdown","mullerlyer","arrowup",97,669,FALSE,3,11,0.4375,679.380937479436,653.320714265906,1493.30448975064,"Yes","0.0.1","10/03/2021 18:28:54","20210310","182854",8,1536,722,"1536x722",1536,864,"1536x864",24,24,FALSE,"Netscape","Mozilla","Gecko","5.0 (Windows NT 10.0; Win64; x64) AppleWebKit/537.36 (KHTML, like Gecko) Chrome/89.0.4389.82 Safari/537.36","Mozilla/5.0 (Windows NT 10.0; Win64; x64) AppleWebKit/537.36 (KHTML, like Gecko) Chrome/89.0.4389.82 Safari/537.36","Win32","en-US",437.109999824315,476.685000117868,1586.62499999627,0.625,637.996093752008,598.697624995839,957.916199993342
"20210310_182854_hqvma","","","Yes","stimuli/MullerLyer_str16.67_diff-0.3.png",16.67,-0.3,457.090000156313,"arrowup","mullerlyer","arrowdown",99,453,FALSE,3,12,0.4375,679.380937479436,653.320714265906,1493.30448975064,"Yes","0.0.1","10/03/2021 18:28:54","20210310","182854",8,1536,722,"1536x722",1536,864,"1536x864",24,24,FALSE,"Netscape","Mozilla","Gecko","5.0 (Windows NT 10.0; Win64; x64) AppleWebKit/537.36 (KHTML, like Gecko) Chrome/89.0.4389.82 Safari/537.36","Mozilla/5.0 (Windows NT 10.0; Win64; x64) AppleWebKit/537.36 (KHTML, like Gecko) Chrome/89.0.4389.82 Safari/537.36","Win32","en-US",437.109999824315,476.685000117868,1586.62499999627,0.625,637.996093752008,598.697624995839,957.916199993342
"20210310_182854_hqvma","","","Yes","stimuli/MullerLyer_str-50.0_diff0.3.png",-50,0.3,541.485000168905,"arrowdown","mullerlyer","arrowup",101,641,FALSE,3,13,0.4375,679.380937479436,653.320714265906,1493.30448975064,"Yes","0.0.1","10/03/2021 18:28:54","20210310","182854",8,1536,722,"1536x722",1536,864,"1536x864",24,24,FALSE,"Netscape","Mozilla","Gecko","5.0 (Windows NT 10.0; Win64; x64) AppleWebKit/537.36 (KHTML, like Gecko) Chrome/89.0.4389.82 Safari/537.36","Mozilla/5.0 (Windows NT 10.0; Win64; x64) AppleWebKit/537.36 (KHTML, like Gecko) Chrome/89.0.4389.82 Safari/537.36","Win32","en-US",437.109999824315,476.685000117868,1586.62499999627,0.625,637.996093752008,598.697624995839,957.916199993342
"20210310_182854_hqvma","","","Yes","stimuli/MullerLyer_str-16.67_diff0.3.png",-16.67,0.3,533.170000184327,"arrowup","mullerlyer","arrowup",103,514,TRUE,3,14,0.4375,679.380937479436,653.320714265906,1493.30448975064,"Yes","0.0.1","10/03/2021 18:28:54","20210310","182854",8,1536,722,"1536x722",1536,864,"1536x864",24,24,FALSE,"Netscape","Mozilla","Gecko","5.0 (Windows NT 10.0; Win64; x64) AppleWebKit/537.36 (KHTML, like Gecko) Chrome/89.0.4389.82 Safari/537.36","Mozilla/5.0 (Windows NT 10.0; Win64; x64) AppleWebKit/537.36 (KHTML, like Gecko) Chrome/89.0.4389.82 Safari/537.36","Win32","en-US",437.109999824315,476.685000117868,1586.62499999627,0.625,637.996093752008,598.697624995839,957.916199993342
"20210310_182854_hqvma","","","Yes","stimuli/MullerLyer_str-50.0_diff0.1.png",-50,0.1,531.05999995023,"arrowdown","mullerlyer","arrowup",105,713,FALSE,3,15,0.4375,679.380937479436,653.320714265906,1493.30448975064,"Yes","0.0.1","10/03/2021 18:28:54","20210310","182854",8,1536,722,"1536x722",1536,864,"1536x864",24,24,FALSE,"Netscape","Mozilla","Gecko","5.0 (Windows NT 10.0; Win64; x64) AppleWebKit/537.36 (KHTML, like Gecko) Chrome/89.0.4389.82 Safari/537.36","Mozilla/5.0 (Windows NT 10.0; Win64; x64) AppleWebKit/537.36 (KHTML, like Gecko) Chrome/89.0.4389.82 Safari/537.36","Win32","en-US",437.109999824315,476.685000117868,1586.62499999627,0.625,637.996093752008,598.697624995839,957.916199993342
"20210310_182854_hqvma","","","Yes","stimuli/MullerLyer_str50.0_diff-0.1.png",50,-0.1,510.789999971166,"arrowup","mullerlyer","arrowdown",107,363,FALSE,3,16,0.4375,679.380937479436,653.320714265906,1493.30448975064,"Yes","0.0.1","10/03/2021 18:28:54","20210310","182854",8,1536,722,"1536x722",1536,864,"1536x864",24,24,FALSE,"Netscape","Mozilla","Gecko","5.0 (Windows NT 10.0; Win64; x64) AppleWebKit/537.36 (KHTML, like Gecko) Chrome/89.0.4389.82 Safari/537.36","Mozilla/5.0 (Windows NT 10.0; Win64; x64) AppleWebKit/537.36 (KHTML, like Gecko) Chrome/89.0.4389.82 Safari/537.36","Win32","en-US",437.109999824315,476.685000117868,1586.62499999627,0.625,637.996093752008,598.697624995839,957.916199993342
"20210310_182854_hqvma","","","Yes","stimuli/Ponzo_str20.0_diff-0.1.png",20,-0.1,502.905000001192,"arrowup","ponzo","arrowdown",112,2685,FALSE,4,1,0.625,511.354375004885,487.185500003397,779.496800005436,"Yes","0.0.1","10/03/2021 18:28:54","20210310","182854",8,1536,722,"1536x722",1536,864,"1536x864",24,24,FALSE,"Netscape","Mozilla","Gecko","5.0 (Windows NT 10.0; Win64; x64) AppleWebKit/537.36 (KHTML, like Gecko) Chrome/89.0.4389.82 Safari/537.36","Mozilla/5.0 (Windows NT 10.0; Win64; x64) AppleWebKit/537.36 (KHTML, like Gecko) Chrome/89.0.4389.82 Safari/537.36","Win32","en-US",437.109999824315,476.685000117868,1586.62499999627,0.625,637.996093752008,598.697624995839,957.916199993342
"20210310_182854_hqvma","","","Yes","stimuli/Ponzo_str20.0_diff-0.3.png",20,-0.3,567.714999895543,"arrowdown","ponzo","arrowdown",114,306,TRUE,4,2,0.625,511.354375004885,487.185500003397,779.496800005436,"Yes","0.0.1","10/03/2021 18:28:54","20210310","182854",8,1536,722,"1536x722",1536,864,"1536x864",24,24,FALSE,"Netscape","Mozilla","Gecko","5.0 (Windows NT 10.0; Win64; x64) AppleWebKit/537.36 (KHTML, like Gecko) Chrome/89.0.4389.82 Safari/537.36","Mozilla/5.0 (Windows NT 10.0; Win64; x64) AppleWebKit/537.36 (KHTML, like Gecko) Chrome/89.0.4389.82 Safari/537.36","Win32","en-US",437.109999824315,476.685000117868,1586.62499999627,0.625,637.996093752008,598.697624995839,957.916199993342
"20210310_182854_hqvma","","","Yes","stimuli/Ponzo_str-6.67_diff0.1.png",-6.67,0.1,458.82000005804,"arrowup","ponzo","arrowup",116,678,TRUE,4,3,0.625,511.354375004885,487.185500003397,779.496800005436,"Yes","0.0.1","10/03/2021 18:28:54","20210310","182854",8,1536,722,"1536x722",1536,864,"1536x864",24,24,FALSE,"Netscape","Mozilla","Gecko","5.0 (Windows NT 10.0; Win64; x64) AppleWebKit/537.36 (KHTML, like Gecko) Chrome/89.0.4389.82 Safari/537.36","Mozilla/5.0 (Windows NT 10.0; Win64; x64) AppleWebKit/537.36 (KHTML, like Gecko) Chrome/89.0.4389.82 Safari/537.36","Win32","en-US",437.109999824315,476.685000117868,1586.62499999627,0.625,637.996093752008,598.697624995839,957.916199993342
"20210310_182854_hqvma","","","Yes","stimuli/Ponzo_str6.67_diff-0.1.png",6.67,-0.1,538.209999911487,"arrowup","ponzo","arrowdown",118,457,FALSE,4,4,0.625,511.354375004885,487.185500003397,779.496800005436,"Yes","0.0.1","10/03/2021 18:28:54","20210310","182854",8,1536,722,"1536x722",1536,864,"1536x864",24,24,FALSE,"Netscape","Mozilla","Gecko","5.0 (Windows NT 10.0; Win64; x64) AppleWebKit/537.36 (KHTML, like Gecko) Chrome/89.0.4389.82 Safari/537.36","Mozilla/5.0 (Windows NT 10.0; Win64; x64) AppleWebKit/537.36 (KHTML, like Gecko) Chrome/89.0.4389.82 Safari/537.36","Win32","en-US",437.109999824315,476.685000117868,1586.62499999627,0.625,637.996093752008,598.697624995839,957.916199993342
"20210310_182854_hqvma","","","Yes","stimuli/Ponzo_str20.0_diff0.1.png",20,0.1,536.779999965802,"arrowup","ponzo","arrowup",120,521,TRUE,4,5,0.625,511.354375004885,487.185500003397,779.496800005436,"Yes","0.0.1","10/03/2021 18:28:54","20210310","182854",8,1536,722,"1536x722",1536,864,"1536x864",24,24,FALSE,"Netscape","Mozilla","Gecko","5.0 (Windows NT 10.0; Win64; x64) AppleWebKit/537.36 (KHTML, like Gecko) Chrome/89.0.4389.82 Safari/537.36","Mozilla/5.0 (Windows NT 10.0; Win64; x64) AppleWebKit/537.36 (KHTML, like Gecko) Chrome/89.0.4389.82 Safari/537.36","Win32","en-US",437.109999824315,476.685000117868,1586.62499999627,0.625,637.996093752008,598.697624995839,957.916199993342
"20210310_182854_hqvma","","","Yes","stimuli/Ponzo_str-20.0_diff-0.3.png",-20,-0.3,478.499999968335,"arrowup","ponzo","arrowdown",122,633,FALSE,4,6,0.625,511.354375004885,487.185500003397,779.496800005436,"Yes","0.0.1","10/03/2021 18:28:54","20210310","182854",8,1536,722,"1536x722",1536,864,"1536x864",24,24,FALSE,"Netscape","Mozilla","Gecko","5.0 (Windows NT 10.0; Win64; x64) AppleWebKit/537.36 (KHTML, like Gecko) Chrome/89.0.4389.82 Safari/537.36","Mozilla/5.0 (Windows NT 10.0; Win64; x64) AppleWebKit/537.36 (KHTML, like Gecko) Chrome/89.0.4389.82 Safari/537.36","Win32","en-US",437.109999824315,476.685000117868,1586.62499999627,0.625,637.996093752008,598.697624995839,957.916199993342
"20210310_182854_hqvma","","","Yes","stimuli/Ponzo_str-6.67_diff-0.1.png",-6.67,-0.1,543.544999789447,"arrowdown","ponzo","arrowdown",124,395,TRUE,4,7,0.625,511.354375004885,487.185500003397,779.496800005436,"Yes","0.0.1","10/03/2021 18:28:54","20210310","182854",8,1536,722,"1536x722",1536,864,"1536x864",24,24,FALSE,"Netscape","Mozilla","Gecko","5.0 (Windows NT 10.0; Win64; x64) AppleWebKit/537.36 (KHTML, like Gecko) Chrome/89.0.4389.82 Safari/537.36","Mozilla/5.0 (Windows NT 10.0; Win64; x64) AppleWebKit/537.36 (KHTML, like Gecko) Chrome/89.0.4389.82 Safari/537.36","Win32","en-US",437.109999824315,476.685000117868,1586.62499999627,0.625,637.996093752008,598.697624995839,957.916199993342
"20210310_182854_hqvma","","","Yes","stimuli/Ponzo_str-6.67_diff0.3.png",-6.67,0.3,476.990000111982,"arrowup","ponzo","arrowup",126,595,TRUE,4,8,0.625,511.354375004885,487.185500003397,779.496800005436,"Yes","0.0.1","10/03/2021 18:28:54","20210310","182854",8,1536,722,"1536x722",1536,864,"1536x864",24,24,FALSE,"Netscape","Mozilla","Gecko","5.0 (Windows NT 10.0; Win64; x64) AppleWebKit/537.36 (KHTML, like Gecko) Chrome/89.0.4389.82 Safari/537.36","Mozilla/5.0 (Windows NT 10.0; Win64; x64) AppleWebKit/537.36 (KHTML, like Gecko) Chrome/89.0.4389.82 Safari/537.36","Win32","en-US",437.109999824315,476.685000117868,1586.62499999627,0.625,637.996093752008,598.697624995839,957.916199993342
"20210310_182854_hqvma","","","Yes","stimuli/Ponzo_str-20.0_diff0.1.png",-20,0.1,485.3900000453,"arrowup","ponzo","arrowup",128,468,TRUE,4,9,0.625,511.354375004885,487.185500003397,779.496800005436,"Yes","0.0.1","10/03/2021 18:28:54","20210310","182854",8,1536,722,"1536x722",1536,864,"1536x864",24,24,FALSE,"Netscape","Mozilla","Gecko","5.0 (Windows NT 10.0; Win64; x64) AppleWebKit/537.36 (KHTML, like Gecko) Chrome/89.0.4389.82 Safari/537.36","Mozilla/5.0 (Windows NT 10.0; Win64; x64) AppleWebKit/537.36 (KHTML, like Gecko) Chrome/89.0.4389.82 Safari/537.36","Win32","en-US",437.109999824315,476.685000117868,1586.62499999627,0.625,637.996093752008,598.697624995839,957.916199993342
"20210310_182854_hqvma","","","Yes","stimuli/Ponzo_str6.67_diff0.3.png",6.67,0.3,524.72999994643,"arrowup","ponzo","arrowup",130,347,TRUE,4,10,0.625,511.354375004885,487.185500003397,779.496800005436,"Yes","0.0.1","10/03/2021 18:28:54","20210310","182854",8,1536,722,"1536x722",1536,864,"1536x864",24,24,FALSE,"Netscape","Mozilla","Gecko","5.0 (Windows NT 10.0; Win64; x64) AppleWebKit/537.36 (KHTML, like Gecko) Chrome/89.0.4389.82 Safari/537.36","Mozilla/5.0 (Windows NT 10.0; Win64; x64) AppleWebKit/537.36 (KHTML, like Gecko) Chrome/89.0.4389.82 Safari/537.36","Win32","en-US",437.109999824315,476.685000117868,1586.62499999627,0.625,637.996093752008,598.697624995839,957.916199993342
"20210310_182854_hqvma","","","Yes","stimuli/Ponzo_str20.0_diff0.3.png",20,0.3,500.585000030696,"arrowup","ponzo","arrowup",132,742,TRUE,4,11,0.625,511.354375004885,487.185500003397,779.496800005436,"Yes","0.0.1","10/03/2021 18:28:54","20210310","182854",8,1536,722,"1536x722",1536,864,"1536x864",24,24,FALSE,"Netscape","Mozilla","Gecko","5.0 (Windows NT 10.0; Win64; x64) AppleWebKit/537.36 (KHTML, like Gecko) Chrome/89.0.4389.82 Safari/537.36","Mozilla/5.0 (Windows NT 10.0; Win64; x64) AppleWebKit/537.36 (KHTML, like Gecko) Chrome/89.0.4389.82 Safari/537.36","Win32","en-US",437.109999824315,476.685000117868,1586.62499999627,0.625,637.996093752008,598.697624995839,957.916199993342
"20210310_182854_hqvma","","","Yes","stimuli/Ponzo_str6.67_diff0.1.png",6.67,0.1,344.21500004828,"arrowup","ponzo","arrowup",134,716,TRUE,4,12,0.625,511.354375004885,487.185500003397,779.496800005436,"Yes","0.0.1","10/03/2021 18:28:54","20210310","182854",8,1536,722,"1536x722",1536,864,"1536x864",24,24,FALSE,"Netscape","Mozilla","Gecko","5.0 (Windows NT 10.0; Win64; x64) AppleWebKit/537.36 (KHTML, like Gecko) Chrome/89.0.4389.82 Safari/537.36","Mozilla/5.0 (Windows NT 10.0; Win64; x64) AppleWebKit/537.36 (KHTML, like Gecko) Chrome/89.0.4389.82 Safari/537.36","Win32","en-US",437.109999824315,476.685000117868,1586.62499999627,0.625,637.996093752008,598.697624995839,957.916199993342
"20210310_182854_hqvma","","","Yes","stimuli/Ponzo_str6.67_diff-0.3.png",6.67,-0.3,433.085000142455,"arrowdown","ponzo","arrowdown",136,550,TRUE,4,13,0.625,511.354375004885,487.185500003397,779.496800005436,"Yes","0.0.1","10/03/2021 18:28:54","20210310","182854",8,1536,722,"1536x722",1536,864,"1536x864",24,24,FALSE,"Netscape","Mozilla","Gecko","5.0 (Windows NT 10.0; Win64; x64) AppleWebKit/537.36 (KHTML, like Gecko) Chrome/89.0.4389.82 Safari/537.36","Mozilla/5.0 (Windows NT 10.0; Win64; x64) AppleWebKit/537.36 (KHTML, like Gecko) Chrome/89.0.4389.82 Safari/537.36","Win32","en-US",437.109999824315,476.685000117868,1586.62499999627,0.625,637.996093752008,598.697624995839,957.916199993342
"20210310_182854_hqvma","","","Yes","stimuli/Ponzo_str-6.67_diff-0.3.png",-6.67,-0.3,557.689999928698,"arrowup","ponzo","arrowdown",138,715,FALSE,4,14,0.625,511.354375004885,487.185500003397,779.496800005436,"Yes","0.0.1","10/03/2021 18:28:54","20210310","182854",8,1536,722,"1536x722",1536,864,"1536x864",24,24,FALSE,"Netscape","Mozilla","Gecko","5.0 (Windows NT 10.0; Win64; x64) AppleWebKit/537.36 (KHTML, like Gecko) Chrome/89.0.4389.82 Safari/537.36","Mozilla/5.0 (Windows NT 10.0; Win64; x64) AppleWebKit/537.36 (KHTML, like Gecko) Chrome/89.0.4389.82 Safari/537.36","Win32","en-US",437.109999824315,476.685000117868,1586.62499999627,0.625,637.996093752008,598.697624995839,957.916199993342
"20210310_182854_hqvma","","","Yes","stimuli/Ponzo_str-20.0_diff0.3.png",-20,0.3,565.595000050962,"arrowdown","ponzo","arrowup",140,546,FALSE,4,15,0.625,511.354375004885,487.185500003397,779.496800005436,"Yes","0.0.1","10/03/2021 18:28:54","20210310","182854",8,1536,722,"1536x722",1536,864,"1536x864",24,24,FALSE,"Netscape","Mozilla","Gecko","5.0 (Windows NT 10.0; Win64; x64) AppleWebKit/537.36 (KHTML, like Gecko) Chrome/89.0.4389.82 Safari/537.36","Mozilla/5.0 (Windows NT 10.0; Win64; x64) AppleWebKit/537.36 (KHTML, like Gecko) Chrome/89.0.4389.82 Safari/537.36","Win32","en-US",437.109999824315,476.685000117868,1586.62499999627,0.625,637.996093752008,598.697624995839,957.916199993342
"20210310_182854_hqvma","","","Yes","stimuli/Ponzo_str-20.0_diff-0.1.png",-20,-0.1,666.915000183508,"arrowup","ponzo","arrowdown",142,387,FALSE,4,16,0.625,511.354375004885,487.185500003397,779.496800005436,"Yes","0.0.1","10/03/2021 18:28:54","20210310","182854",8,1536,722,"1536x722",1536,864,"1536x864",24,24,FALSE,"Netscape","Mozilla","Gecko","5.0 (Windows NT 10.0; Win64; x64) AppleWebKit/537.36 (KHTML, like Gecko) Chrome/89.0.4389.82 Safari/537.36","Mozilla/5.0 (Windows NT 10.0; Win64; x64) AppleWebKit/537.36 (KHTML, like Gecko) Chrome/89.0.4389.82 Safari/537.36","Win32","en-US",437.109999824315,476.685000117868,1586.62499999627,0.625,637.996093752008,598.697624995839,957.916199993342
