"Participant_ID","Age","Initials","PlayedBefore","Stimulus","Illusion_Strength","Illusion_Difference","RT","Response","Block","Correct_response","Trial_index","Prestimulus_duration","Correct","Block_number","Trial_number","Block_Accuracy","Block_RT_Mean","Block_RT_Mean_Corr","Block_IES","Fullscreen","Experiment_version","Datetime","Date","Time","Date_timezone","Window_width","Window_height","Window_resolution","Screen_width","Screen_height","Screen_resolution","Screen_colordepth","Screen_pixeldepth","Screen_touchscreen","Browser_name","Browser_codename","Browser_engine","Browser_version","Browser","System_platform","System_language","Duration_Consent","Duration_InfoGeneral","Duration_InfoSession","Grand_Accuracy","Grand_RT_Mean","Grand_RT_Mean_Corr","Grand_IES"
"20210311_172844_tlja7","767","kjrfrljtrlg","Yes","stimuli/Delboeuf_str-0.33_diff-1.0.png",-0.333333333333333,-1,642.770000002201,"arrowleft","delboeuf","arrowright",7,2495,FALSE,1,1,0.125,76.0053125004561,77.3400000016409,618.720000013127,"Yes","0.0.1","11/03/2021 17:28:44","20210311","172844",8,1536,722,"1536x722",1536,864,"1536x864",24,24,FALSE,"Netscape","Mozilla","Gecko","5.0 (Windows NT 10.0; Win64; x64) AppleWebKit/537.36 (KHTML, like Gecko) Chrome/89.0.4389.82 Safari/537.36","Mozilla/5.0 (Windows NT 10.0; Win64; x64) AppleWebKit/537.36 (KHTML, like Gecko) Chrome/89.0.4389.82 Safari/537.36","Win32","en-US",3195.51499999943,5602.45000000214,4052.93499999971,0.34375,121.194687500179,137.333181818163,399.514710743746
"20210311_172844_tlja7","767","kjrfrljtrlg","Yes","stimuli/Delboeuf_str-0.33_diff1.0.png",-0.333333333333333,1,36.1249999987194,"arrowright","delboeuf","arrowleft",9,413,FALSE,1,2,0.125,76.0053125004561,77.3400000016409,618.720000013127,"Yes","0.0.1","11/03/2021 17:28:44","20210311","172844",8,1536,722,"1536x722",1536,864,"1536x864",24,24,FALSE,"Netscape","Mozilla","Gecko","5.0 (Windows NT 10.0; Win64; x64) AppleWebKit/537.36 (KHTML, like Gecko) Chrome/89.0.4389.82 Safari/537.36","Mozilla/5.0 (Windows NT 10.0; Win64; x64) AppleWebKit/537.36 (KHTML, like Gecko) Chrome/89.0.4389.82 Safari/537.36","Win32","en-US",3195.51499999943,5602.45000000214,4052.93499999971,0.34375,121.194687500179,137.333181818163,399.514710743746
"20210311_172844_tlja7","767","kjrfrljtrlg","Yes","stimuli/Delboeuf_str-1.0_diff-0.33.png",-1,-0.333333333333333,15.7350000008591,"arrowleft","delboeuf","arrowright",11,254,FALSE,1,3,0.125,76.0053125004561,77.3400000016409,618.720000013127,"Yes","0.0.1","11/03/2021 17:28:44","20210311","172844",8,1536,722,"1536x722",1536,864,"1536x864",24,24,FALSE,"Netscape","Mozilla","Gecko","5.0 (Windows NT 10.0; Win64; x64) AppleWebKit/537.36 (KHTML, like Gecko) Chrome/89.0.4389.82 Safari/537.36","Mozilla/5.0 (Windows NT 10.0; Win64; x64) AppleWebKit/537.36 (KHTML, like Gecko) Chrome/89.0.4389.82 Safari/537.36","Win32","en-US",3195.51499999943,5602.45000000214,4052.93499999971,0.34375,121.194687500179,137.333181818163,399.514710743746
"20210311_172844_tlja7","767","kjrfrljtrlg","Yes","stimuli/Delboeuf_str0.33_diff0.33.png",0.333333333333333,0.333333333333333,12.3250000033295,"arrowright","delboeuf","arrowleft",13,431,FALSE,1,4,0.125,76.0053125004561,77.3400000016409,618.720000013127,"Yes","0.0.1","11/03/2021 17:28:44","20210311","172844",8,1536,722,"1536x722",1536,864,"1536x864",24,24,FALSE,"Netscape","Mozilla","Gecko","5.0 (Windows NT 10.0; Win64; x64) AppleWebKit/537.36 (KHTML, like Gecko) Chrome/89.0.4389.82 Safari/537.36","Mozilla/5.0 (Windows NT 10.0; Win64; x64) AppleWebKit/537.36 (KHTML, like Gecko) Chrome/89.0.4389.82 Safari/537.36","Win32","en-US",3195.51499999943,5602.45000000214,4052.93499999971,0.34375,121.194687500179,137.333181818163,399.514710743746
"20210311_172844_tlja7","767","kjrfrljtrlg","Yes","stimuli/Delboeuf_str1.0_diff1.0.png",1,1,48.0449999995471,"arrowright","delboeuf","arrowleft",15,325,FALSE,1,5,0.125,76.0053125004561,77.3400000016409,618.720000013127,"Yes","0.0.1","11/03/2021 17:28:44","20210311","172844",8,1536,722,"1536x722",1536,864,"1536x864",24,24,FALSE,"Netscape","Mozilla","Gecko","5.0 (Windows NT 10.0; Win64; x64) AppleWebKit/537.36 (KHTML, like Gecko) Chrome/89.0.4389.82 Safari/537.36","Mozilla/5.0 (Windows NT 10.0; Win64; x64) AppleWebKit/537.36 (KHTML, like Gecko) Chrome/89.0.4389.82 Safari/537.36","Win32","en-US",3195.51499999943,5602.45000000214,4052.93499999971,0.34375,121.194687500179,137.333181818163,399.514710743746
"20210311_172844_tlja7","767","kjrfrljtrlg","Yes","stimuli/Delboeuf_str1.0_diff-1.0.png",1,-1,14.2699999996694,"arrowleft","delboeuf","arrowright",17,425,FALSE,1,6,0.125,76.0053125004561,77.3400000016409,618.720000013127,"Yes","0.0.1","11/03/2021 17:28:44","20210311","172844",8,1536,722,"1536x722",1536,864,"1536x864",24,24,FALSE,"Netscape","Mozilla","Gecko","5.0 (Windows NT 10.0; Win64; x64) AppleWebKit/537.36 (KHTML, like Gecko) Chrome/89.0.4389.82 Safari/537.36","Mozilla/5.0 (Windows NT 10.0; Win64; x64) AppleWebKit/537.36 (KHTML, like Gecko) Chrome/89.0.4389.82 Safari/537.36","Win32","en-US",3195.51499999943,5602.45000000214,4052.93499999971,0.34375,121.194687500179,137.333181818163,399.514710743746
"20210311_172844_tlja7","767","kjrfrljtrlg","Yes","stimuli/Delboeuf_str-1.0_diff0.33.png",-1,0.333333333333333,14.3900000002759,"arrowright","delboeuf","arrowleft",19,464,FALSE,1,7,0.125,76.0053125004561,77.3400000016409,618.720000013127,"Yes","0.0.1","11/03/2021 17:28:44","20210311","172844",8,1536,722,"1536x722",1536,864,"1536x864",24,24,FALSE,"Netscape","Mozilla","Gecko","5.0 (Windows NT 10.0; Win64; x64) AppleWebKit/537.36 (KHTML, like Gecko) Chrome/89.0.4389.82 Safari/537.36","Mozilla/5.0 (Windows NT 10.0; Win64; x64) AppleWebKit/537.36 (KHTML, like Gecko) Chrome/89.0.4389.82 Safari/537.36","Win32","en-US",3195.51499999943,5602.45000000214,4052.93499999971,0.34375,121.194687500179,137.333181818163,399.514710743746
"20210311_172844_tlja7","767","kjrfrljtrlg","Yes","stimuli/Delboeuf_str-0.33_diff-0.33.png",-0.333333333333333,-0.333333333333333,1.76999999894178,"arrowleft","delboeuf","arrowright",21,268,FALSE,1,8,0.125,76.0053125004561,77.3400000016409,618.720000013127,"Yes","0.0.1","11/03/2021 17:28:44","20210311","172844",8,1536,722,"1536x722",1536,864,"1536x864",24,24,FALSE,"Netscape","Mozilla","Gecko","5.0 (Windows NT 10.0; Win64; x64) AppleWebKit/537.36 (KHTML, like Gecko) Chrome/89.0.4389.82 Safari/537.36","Mozilla/5.0 (Windows NT 10.0; Win64; x64) AppleWebKit/537.36 (KHTML, like Gecko) Chrome/89.0.4389.82 Safari/537.36","Win32","en-US",3195.51499999943,5602.45000000214,4052.93499999971,0.34375,121.194687500179,137.333181818163,399.514710743746
"20210311_172844_tlja7","767","kjrfrljtrlg","Yes","stimuli/Delboeuf_str1.0_diff0.33.png",1,0.333333333333333,7.87999999738531,"arrowright","delboeuf","arrowleft",23,498,FALSE,1,9,0.125,76.0053125004561,77.3400000016409,618.720000013127,"Yes","0.0.1","11/03/2021 17:28:44","20210311","172844",8,1536,722,"1536x722",1536,864,"1536x864",24,24,FALSE,"Netscape","Mozilla","Gecko","5.0 (Windows NT 10.0; Win64; x64) AppleWebKit/537.36 (KHTML, like Gecko) Chrome/89.0.4389.82 Safari/537.36","Mozilla/5.0 (Windows NT 10.0; Win64; x64) AppleWebKit/537.36 (KHTML, like Gecko) Chrome/89.0.4389.82 Safari/537.36","Win32","en-US",3195.51499999943,5602.45000000214,4052.93499999971,0.34375,121.194687500179,137.333181818163,399.514710743746
"20210311_172844_tlja7","767","kjrfrljtrlg","Yes","stimuli/Delboeuf_str-0.33_diff0.33.png",-0.333333333333333,0.333333333333333,55.5750000021362,"arrowright","delboeuf","arrowleft",25,332,FALSE,1,10,0.125,76.0053125004561,77.3400000016409,618.720000013127,"Yes","0.0.1","11/03/2021 17:28:44","20210311","172844",8,1536,722,"1536x722",1536,864,"1536x864",24,24,FALSE,"Netscape","Mozilla","Gecko","5.0 (Windows NT 10.0; Win64; x64) AppleWebKit/537.36 (KHTML, like Gecko) Chrome/89.0.4389.82 Safari/537.36","Mozilla/5.0 (Windows NT 10.0; Win64; x64) AppleWebKit/537.36 (KHTML, like Gecko) Chrome/89.0.4389.82 Safari/537.36","Win32","en-US",3195.51499999943,5602.45000000214,4052.93499999971,0.34375,121.194687500179,137.333181818163,399.514710743746
"20210311_172844_tlja7","767","kjrfrljtrlg","Yes","stimuli/Delboeuf_str-1.0_diff1.0.png",-1,1,62.965000000986,"arrowright","delboeuf","arrowleft",27,323,FALSE,1,11,0.125,76.0053125004561,77.3400000016409,618.720000013127,"Yes","0.0.1","11/03/2021 17:28:44","20210311","172844",8,1536,722,"1536x722",1536,864,"1536x864",24,24,FALSE,"Netscape","Mozilla","Gecko","5.0 (Windows NT 10.0; Win64; x64) AppleWebKit/537.36 (KHTML, like Gecko) Chrome/89.0.4389.82 Safari/537.36","Mozilla/5.0 (Windows NT 10.0; Win64; x64) AppleWebKit/537.36 (KHTML, like Gecko) Chrome/89.0.4389.82 Safari/537.36","Win32","en-US",3195.51499999943,5602.45000000214,4052.93499999971,0.34375,121.194687500179,137.333181818163,399.514710743746
"20210311_172844_tlja7","767","kjrfrljtrlg","Yes","stimuli/Delboeuf_str0.33_diff-1.0.png",0.333333333333333,-1,121.190000001661,"arrowright","delboeuf","arrowright",29,296,TRUE,1,12,0.125,76.0053125004561,77.3400000016409,618.720000013127,"Yes","0.0.1","11/03/2021 17:28:44","20210311","172844",8,1536,722,"1536x722",1536,864,"1536x864",24,24,FALSE,"Netscape","Mozilla","Gecko","5.0 (Windows NT 10.0; Win64; x64) AppleWebKit/537.36 (KHTML, like Gecko) Chrome/89.0.4389.82 Safari/537.36","Mozilla/5.0 (Windows NT 10.0; Win64; x64) AppleWebKit/537.36 (KHTML, like Gecko) Chrome/89.0.4389.82 Safari/537.36","Win32","en-US",3195.51499999943,5602.45000000214,4052.93499999971,0.34375,121.194687500179,137.333181818163,399.514710743746
"20210311_172844_tlja7","767","kjrfrljtrlg","Yes","stimuli/Delboeuf_str0.33_diff1.0.png",0.333333333333333,1,93.8099999984843,"arrowright","delboeuf","arrowleft",31,321,FALSE,1,13,0.125,76.0053125004561,77.3400000016409,618.720000013127,"Yes","0.0.1","11/03/2021 17:28:44","20210311","172844",8,1536,722,"1536x722",1536,864,"1536x864",24,24,FALSE,"Netscape","Mozilla","Gecko","5.0 (Windows NT 10.0; Win64; x64) AppleWebKit/537.36 (KHTML, like Gecko) Chrome/89.0.4389.82 Safari/537.36","Mozilla/5.0 (Windows NT 10.0; Win64; x64) AppleWebKit/537.36 (KHTML, like Gecko) Chrome/89.0.4389.82 Safari/537.36","Win32","en-US",3195.51499999943,5602.45000000214,4052.93499999971,0.34375,121.194687500179,137.333181818163,399.514710743746
"20210311_172844_tlja7","767","kjrfrljtrlg","Yes","stimuli/Delboeuf_str1.0_diff-0.33.png",1,-0.333333333333333,3.98000000132015,"arrowleft","delboeuf","arrowright",33,470,FALSE,1,14,0.125,76.0053125004561,77.3400000016409,618.720000013127,"Yes","0.0.1","11/03/2021 17:28:44","20210311","172844",8,1536,722,"1536x722",1536,864,"1536x864",24,24,FALSE,"Netscape","Mozilla","Gecko","5.0 (Windows NT 10.0; Win64; x64) AppleWebKit/537.36 (KHTML, like Gecko) Chrome/89.0.4389.82 Safari/537.36","Mozilla/5.0 (Windows NT 10.0; Win64; x64) AppleWebKit/537.36 (KHTML, like Gecko) Chrome/89.0.4389.82 Safari/537.36","Win32","en-US",3195.51499999943,5602.45000000214,4052.93499999971,0.34375,121.194687500179,137.333181818163,399.514710743746
"20210311_172844_tlja7","767","kjrfrljtrlg","Yes","stimuli/Delboeuf_str0.33_diff-0.33.png",0.333333333333333,-0.333333333333333,33.4900000016205,"arrowright","delboeuf","arrowright",35,482,TRUE,1,15,0.125,76.0053125004561,77.3400000016409,618.720000013127,"Yes","0.0.1","11/03/2021 17:28:44","20210311","172844",8,1536,722,"1536x722",1536,864,"1536x864",24,24,FALSE,"Netscape","Mozilla","Gecko","5.0 (Windows NT 10.0; Win64; x64) AppleWebKit/537.36 (KHTML, like Gecko) Chrome/89.0.4389.82 Safari/537.36","Mozilla/5.0 (Windows NT 10.0; Win64; x64) AppleWebKit/537.36 (KHTML, like Gecko) Chrome/89.0.4389.82 Safari/537.36","Win32","en-US",3195.51499999943,5602.45000000214,4052.93499999971,0.34375,121.194687500179,137.333181818163,399.514710743746
"20210311_172844_tlja7","767","kjrfrljtrlg","Yes","stimuli/Delboeuf_str-1.0_diff-1.0.png",-1,-1,51.7650000001595,"arrowleft","delboeuf","arrowright",37,415,FALSE,1,16,0.125,76.0053125004561,77.3400000016409,618.720000013127,"Yes","0.0.1","11/03/2021 17:28:44","20210311","172844",8,1536,722,"1536x722",1536,864,"1536x864",24,24,FALSE,"Netscape","Mozilla","Gecko","5.0 (Windows NT 10.0; Win64; x64) AppleWebKit/537.36 (KHTML, like Gecko) Chrome/89.0.4389.82 Safari/537.36","Mozilla/5.0 (Windows NT 10.0; Win64; x64) AppleWebKit/537.36 (KHTML, like Gecko) Chrome/89.0.4389.82 Safari/537.36","Win32","en-US",3195.51499999943,5602.45000000214,4052.93499999971,0.34375,121.194687500179,137.333181818163,399.514710743746
"20210311_172844_tlja7","767","kjrfrljtrlg","Yes","stimuli/Ebbinghaus_str0.33_diff-1.0.png",0.333333333333333,-1,861.649999998917,"arrowleft","ebbinghaus","arrowright",42,2462,FALSE,2,1,0.5,102.000312499968,43.057499999577,86.114999999154,"Yes","0.0.1","11/03/2021 17:28:44","20210311","172844",8,1536,722,"1536x722",1536,864,"1536x864",24,24,FALSE,"Netscape","Mozilla","Gecko","5.0 (Windows NT 10.0; Win64; x64) AppleWebKit/537.36 (KHTML, like Gecko) Chrome/89.0.4389.82 Safari/537.36","Mozilla/5.0 (Windows NT 10.0; Win64; x64) AppleWebKit/537.36 (KHTML, like Gecko) Chrome/89.0.4389.82 Safari/537.36","Win32","en-US",3195.51499999943,5602.45000000214,4052.93499999971,0.34375,121.194687500179,137.333181818163,399.514710743746
"20210311_172844_tlja7","767","kjrfrljtrlg","Yes","stimuli/Ebbinghaus_str0.33_diff1.0.png",0.333333333333333,1,31.9899999994959,"arrowleft","ebbinghaus","arrowleft",44,409,TRUE,2,2,0.5,102.000312499968,43.057499999577,86.114999999154,"Yes","0.0.1","11/03/2021 17:28:44","20210311","172844",8,1536,722,"1536x722",1536,864,"1536x864",24,24,FALSE,"Netscape","Mozilla","Gecko","5.0 (Windows NT 10.0; Win64; x64) AppleWebKit/537.36 (KHTML, like Gecko) Chrome/89.0.4389.82 Safari/537.36","Mozilla/5.0 (Windows NT 10.0; Win64; x64) AppleWebKit/537.36 (KHTML, like Gecko) Chrome/89.0.4389.82 Safari/537.36","Win32","en-US",3195.51499999943,5602.45000000214,4052.93499999971,0.34375,121.194687500179,137.333181818163,399.514710743746
"20210311_172844_tlja7","767","kjrfrljtrlg","Yes","stimuli/Ebbinghaus_str-1.0_diff0.33.png",-1,0.333333333333333,54.309999999532,"arrowright","ebbinghaus","arrowleft",46,495,FALSE,2,3,0.5,102.000312499968,43.057499999577,86.114999999154,"Yes","0.0.1","11/03/2021 17:28:44","20210311","172844",8,1536,722,"1536x722",1536,864,"1536x864",24,24,FALSE,"Netscape","Mozilla","Gecko","5.0 (Windows NT 10.0; Win64; x64) AppleWebKit/537.36 (KHTML, like Gecko) Chrome/89.0.4389.82 Safari/537.36","Mozilla/5.0 (Windows NT 10.0; Win64; x64) AppleWebKit/537.36 (KHTML, like Gecko) Chrome/89.0.4389.82 Safari/537.36","Win32","en-US",3195.51499999943,5602.45000000214,4052.93499999971,0.34375,121.194687500179,137.333181818163,399.514710743746
"20210311_172844_tlja7","767","kjrfrljtrlg","Yes","stimuli/Ebbinghaus_str1.0_diff0.33.png",1,0.333333333333333,83.6850000014238,"arrowright","ebbinghaus","arrowleft",48,321,FALSE,2,4,0.5,102.000312499968,43.057499999577,86.114999999154,"Yes","0.0.1","11/03/2021 17:28:44","20210311","172844",8,1536,722,"1536x722",1536,864,"1536x864",24,24,FALSE,"Netscape","Mozilla","Gecko","5.0 (Windows NT 10.0; Win64; x64) AppleWebKit/537.36 (KHTML, like Gecko) Chrome/89.0.4389.82 Safari/537.36","Mozilla/5.0 (Windows NT 10.0; Win64; x64) AppleWebKit/537.36 (KHTML, like Gecko) Chrome/89.0.4389.82 Safari/537.36","Win32","en-US",3195.51499999943,5602.45000000214,4052.93499999971,0.34375,121.194687500179,137.333181818163,399.514710743746
"20210311_172844_tlja7","767","kjrfrljtrlg","Yes","stimuli/Ebbinghaus_str-0.33_diff-1.0.png",-0.333333333333333,-1,11.8800000018382,"arrowleft","ebbinghaus","arrowright",50,265,FALSE,2,5,0.5,102.000312499968,43.057499999577,86.114999999154,"Yes","0.0.1","11/03/2021 17:28:44","20210311","172844",8,1536,722,"1536x722",1536,864,"1536x864",24,24,FALSE,"Netscape","Mozilla","Gecko","5.0 (Windows NT 10.0; Win64; x64) AppleWebKit/537.36 (KHTML, like Gecko) Chrome/89.0.4389.82 Safari/537.36","Mozilla/5.0 (Windows NT 10.0; Win64; x64) AppleWebKit/537.36 (KHTML, like Gecko) Chrome/89.0.4389.82 Safari/537.36","Win32","en-US",3195.51499999943,5602.45000000214,4052.93499999971,0.34375,121.194687500179,137.333181818163,399.514710743746
"20210311_172844_tlja7","767","kjrfrljtrlg","Yes","stimuli/Ebbinghaus_str-1.0_diff-1.0.png",-1,-1,83.0999999998312,"arrowright","ebbinghaus","arrowright",52,291,TRUE,2,6,0.5,102.000312499968,43.057499999577,86.114999999154,"Yes","0.0.1","11/03/2021 17:28:44","20210311","172844",8,1536,722,"1536x722",1536,864,"1536x864",24,24,FALSE,"Netscape","Mozilla","Gecko","5.0 (Windows NT 10.0; Win64; x64) AppleWebKit/537.36 (KHTML, like Gecko) Chrome/89.0.4389.82 Safari/537.36","Mozilla/5.0 (Windows NT 10.0; Win64; x64) AppleWebKit/537.36 (KHTML, like Gecko) Chrome/89.0.4389.82 Safari/537.36","Win32","en-US",3195.51499999943,5602.45000000214,4052.93499999971,0.34375,121.194687500179,137.333181818163,399.514710743746
"20210311_172844_tlja7","767","kjrfrljtrlg","Yes","stimuli/Ebbinghaus_str0.33_diff-0.33.png",0.333333333333333,-0.333333333333333,19.0700000021025,"arrowleft","ebbinghaus","arrowright",54,474,FALSE,2,7,0.5,102.000312499968,43.057499999577,86.114999999154,"Yes","0.0.1","11/03/2021 17:28:44","20210311","172844",8,1536,722,"1536x722",1536,864,"1536x864",24,24,FALSE,"Netscape","Mozilla","Gecko","5.0 (Windows NT 10.0; Win64; x64) AppleWebKit/537.36 (KHTML, like Gecko) Chrome/89.0.4389.82 Safari/537.36","Mozilla/5.0 (Windows NT 10.0; Win64; x64) AppleWebKit/537.36 (KHTML, like Gecko) Chrome/89.0.4389.82 Safari/537.36","Win32","en-US",3195.51499999943,5602.45000000214,4052.93499999971,0.34375,121.194687500179,137.333181818163,399.514710743746
"20210311_172844_tlja7","767","kjrfrljtrlg","Yes","stimuli/Ebbinghaus_str-0.33_diff-0.33.png",-0.333333333333333,-0.333333333333333,55.1500000001397,"arrowright","ebbinghaus","arrowright",56,286,TRUE,2,8,0.5,102.000312499968,43.057499999577,86.114999999154,"Yes","0.0.1","11/03/2021 17:28:44","20210311","172844",8,1536,722,"1536x722",1536,864,"1536x864",24,24,FALSE,"Netscape","Mozilla","Gecko","5.0 (Windows NT 10.0; Win64; x64) AppleWebKit/537.36 (KHTML, like Gecko) Chrome/89.0.4389.82 Safari/537.36","Mozilla/5.0 (Windows NT 10.0; Win64; x64) AppleWebKit/537.36 (KHTML, like Gecko) Chrome/89.0.4389.82 Safari/537.36","Win32","en-US",3195.51499999943,5602.45000000214,4052.93499999971,0.34375,121.194687500179,137.333181818163,399.514710743746
"20210311_172844_tlja7","767","kjrfrljtrlg","Yes","stimuli/Ebbinghaus_str-0.33_diff0.33.png",-0.333333333333333,0.333333333333333,101.839999999356,"arrowright","ebbinghaus","arrowleft",58,345,FALSE,2,9,0.5,102.000312499968,43.057499999577,86.114999999154,"Yes","0.0.1","11/03/2021 17:28:44","20210311","172844",8,1536,722,"1536x722",1536,864,"1536x864",24,24,FALSE,"Netscape","Mozilla","Gecko","5.0 (Windows NT 10.0; Win64; x64) AppleWebKit/537.36 (KHTML, like Gecko) Chrome/89.0.4389.82 Safari/537.36","Mozilla/5.0 (Windows NT 10.0; Win64; x64) AppleWebKit/537.36 (KHTML, like Gecko) Chrome/89.0.4389.82 Safari/537.36","Win32","en-US",3195.51499999943,5602.45000000214,4052.93499999971,0.34375,121.194687500179,137.333181818163,399.514710743746
"20210311_172844_tlja7","767","kjrfrljtrlg","Yes","stimuli/Ebbinghaus_str-0.33_diff1.0.png",-0.333333333333333,1,0.974999999016291,"arrowleft","ebbinghaus","arrowleft",60,257,TRUE,2,10,0.5,102.000312499968,43.057499999577,86.114999999154,"Yes","0.0.1","11/03/2021 17:28:44","20210311","172844",8,1536,722,"1536x722",1536,864,"1536x864",24,24,FALSE,"Netscape","Mozilla","Gecko","5.0 (Windows NT 10.0; Win64; x64) AppleWebKit/537.36 (KHTML, like Gecko) Chrome/89.0.4389.82 Safari/537.36","Mozilla/5.0 (Windows NT 10.0; Win64; x64) AppleWebKit/537.36 (KHTML, like Gecko) Chrome/89.0.4389.82 Safari/537.36","Win32","en-US",3195.51499999943,5602.45000000214,4052.93499999971,0.34375,121.194687500179,137.333181818163,399.514710743746
"20210311_172844_tlja7","767","kjrfrljtrlg","Yes","stimuli/Ebbinghaus_str-1.0_diff-0.33.png",-1,-0.333333333333333,74.9049999976705,"arrowright","ebbinghaus","arrowright",62,499,TRUE,2,11,0.5,102.000312499968,43.057499999577,86.114999999154,"Yes","0.0.1","11/03/2021 17:28:44","20210311","172844",8,1536,722,"1536x722",1536,864,"1536x864",24,24,FALSE,"Netscape","Mozilla","Gecko","5.0 (Windows NT 10.0; Win64; x64) AppleWebKit/537.36 (KHTML, like Gecko) Chrome/89.0.4389.82 Safari/537.36","Mozilla/5.0 (Windows NT 10.0; Win64; x64) AppleWebKit/537.36 (KHTML, like Gecko) Chrome/89.0.4389.82 Safari/537.36","Win32","en-US",3195.51499999943,5602.45000000214,4052.93499999971,0.34375,121.194687500179,137.333181818163,399.514710743746
"20210311_172844_tlja7","767","kjrfrljtrlg","Yes","stimuli/Ebbinghaus_str1.0_diff-0.33.png",1,-0.333333333333333,82.6649999980873,"arrowright","ebbinghaus","arrowright",64,365,TRUE,2,12,0.5,102.000312499968,43.057499999577,86.114999999154,"Yes","0.0.1","11/03/2021 17:28:44","20210311","172844",8,1536,722,"1536x722",1536,864,"1536x864",24,24,FALSE,"Netscape","Mozilla","Gecko","5.0 (Windows NT 10.0; Win64; x64) AppleWebKit/537.36 (KHTML, like Gecko) Chrome/89.0.4389.82 Safari/537.36","Mozilla/5.0 (Windows NT 10.0; Win64; x64) AppleWebKit/537.36 (KHTML, like Gecko) Chrome/89.0.4389.82 Safari/537.36","Win32","en-US",3195.51499999943,5602.45000000214,4052.93499999971,0.34375,121.194687500179,137.333181818163,399.514710743746
"20210311_172844_tlja7","767","kjrfrljtrlg","Yes","stimuli/Ebbinghaus_str-1.0_diff1.0.png",-1,1,146.03999999963,"arrowright","ebbinghaus","arrowleft",66,333,FALSE,2,13,0.5,102.000312499968,43.057499999577,86.114999999154,"Yes","0.0.1","11/03/2021 17:28:44","20210311","172844",8,1536,722,"1536x722",1536,864,"1536x864",24,24,FALSE,"Netscape","Mozilla","Gecko","5.0 (Windows NT 10.0; Win64; x64) AppleWebKit/537.36 (KHTML, like Gecko) Chrome/89.0.4389.82 Safari/537.36","Mozilla/5.0 (Windows NT 10.0; Win64; x64) AppleWebKit/537.36 (KHTML, like Gecko) Chrome/89.0.4389.82 Safari/537.36","Win32","en-US",3195.51499999943,5602.45000000214,4052.93499999971,0.34375,121.194687500179,137.333181818163,399.514710743746
"20210311_172844_tlja7","767","kjrfrljtrlg","Yes","stimuli/Ebbinghaus_str1.0_diff1.0.png",1,1,5.14000000111992,"arrowleft","ebbinghaus","arrowleft",68,294,TRUE,2,14,0.5,102.000312499968,43.057499999577,86.114999999154,"Yes","0.0.1","11/03/2021 17:28:44","20210311","172844",8,1536,722,"1536x722",1536,864,"1536x864",24,24,FALSE,"Netscape","Mozilla","Gecko","5.0 (Windows NT 10.0; Win64; x64) AppleWebKit/537.36 (KHTML, like Gecko) Chrome/89.0.4389.82 Safari/537.36","Mozilla/5.0 (Windows NT 10.0; Win64; x64) AppleWebKit/537.36 (KHTML, like Gecko) Chrome/89.0.4389.82 Safari/537.36","Win32","en-US",3195.51499999943,5602.45000000214,4052.93499999971,0.34375,121.194687500179,137.333181818163,399.514710743746
"20210311_172844_tlja7","767","kjrfrljtrlg","Yes","stimuli/Ebbinghaus_str1.0_diff-1.0.png",1,-1,9.07000000006519,"arrowleft","ebbinghaus","arrowright",70,443,FALSE,2,15,0.5,102.000312499968,43.057499999577,86.114999999154,"Yes","0.0.1","11/03/2021 17:28:44","20210311","172844",8,1536,722,"1536x722",1536,864,"1536x864",24,24,FALSE,"Netscape","Mozilla","Gecko","5.0 (Windows NT 10.0; Win64; x64) AppleWebKit/537.36 (KHTML, like Gecko) Chrome/89.0.4389.82 Safari/537.36","Mozilla/5.0 (Windows NT 10.0; Win64; x64) AppleWebKit/537.36 (KHTML, like Gecko) Chrome/89.0.4389.82 Safari/537.36","Win32","en-US",3195.51499999943,5602.45000000214,4052.93499999971,0.34375,121.194687500179,137.333181818163,399.514710743746
"20210311_172844_tlja7","767","kjrfrljtrlg","Yes","stimuli/Ebbinghaus_str0.33_diff0.33.png",0.333333333333333,0.333333333333333,10.535000001255,"arrowleft","ebbinghaus","arrowleft",72,441,TRUE,2,16,0.5,102.000312499968,43.057499999577,86.114999999154,"Yes","0.0.1","11/03/2021 17:28:44","20210311","172844",8,1536,722,"1536x722",1536,864,"1536x864",24,24,FALSE,"Netscape","Mozilla","Gecko","5.0 (Windows NT 10.0; Win64; x64) AppleWebKit/537.36 (KHTML, like Gecko) Chrome/89.0.4389.82 Safari/537.36","Mozilla/5.0 (Windows NT 10.0; Win64; x64) AppleWebKit/537.36 (KHTML, like Gecko) Chrome/89.0.4389.82 Safari/537.36","Win32","en-US",3195.51499999943,5602.45000000214,4052.93499999971,0.34375,121.194687500179,137.333181818163,399.514710743746
"20210311_172844_tlja7","767","kjrfrljtrlg","Yes","stimuli/MullerLyer_str16.67_diff-0.3.png",16.6666666666667,-0.3,1295.79999999987,"arrowdown","mullerlyer","arrowdown",77,2489,TRUE,3,1,0.4375,194.665624999971,335.726428571174,767.374693876969,"Yes","0.0.1","11/03/2021 17:28:44","20210311","172844",8,1536,722,"1536x722",1536,864,"1536x864",24,24,FALSE,"Netscape","Mozilla","Gecko","5.0 (Windows NT 10.0; Win64; x64) AppleWebKit/537.36 (KHTML, like Gecko) Chrome/89.0.4389.82 Safari/537.36","Mozilla/5.0 (Windows NT 10.0; Win64; x64) AppleWebKit/537.36 (KHTML, like Gecko) Chrome/89.0.4389.82 Safari/537.36","Win32","en-US",3195.51499999943,5602.45000000214,4052.93499999971,0.34375,121.194687500179,137.333181818163,399.514710743746
"20210311_172844_tlja7","767","kjrfrljtrlg","Yes","stimuli/MullerLyer_str16.67_diff0.3.png",16.6666666666667,0.3,715.079999998125,"arrowup","mullerlyer","arrowup",79,434,TRUE,3,2,0.4375,194.665624999971,335.726428571174,767.374693876969,"Yes","0.0.1","11/03/2021 17:28:44","20210311","172844",8,1536,722,"1536x722",1536,864,"1536x864",24,24,FALSE,"Netscape","Mozilla","Gecko","5.0 (Windows NT 10.0; Win64; x64) AppleWebKit/537.36 (KHTML, like Gecko) Chrome/89.0.4389.82 Safari/537.36","Mozilla/5.0 (Windows NT 10.0; Win64; x64) AppleWebKit/537.36 (KHTML, like Gecko) Chrome/89.0.4389.82 Safari/537.36","Win32","en-US",3195.51499999943,5602.45000000214,4052.93499999971,0.34375,121.194687500179,137.333181818163,399.514710743746
"20210311_172844_tlja7","767","kjrfrljtrlg","Yes","stimuli/MullerLyer_str-16.67_diff0.1.png",-16.6666666666667,0.1,33.755000000383,"arrowdown","mullerlyer","arrowup",81,320,FALSE,3,3,0.4375,194.665624999971,335.726428571174,767.374693876969,"Yes","0.0.1","11/03/2021 17:28:44","20210311","172844",8,1536,722,"1536x722",1536,864,"1536x864",24,24,FALSE,"Netscape","Mozilla","Gecko","5.0 (Windows NT 10.0; Win64; x64) AppleWebKit/537.36 (KHTML, like Gecko) Chrome/89.0.4389.82 Safari/537.36","Mozilla/5.0 (Windows NT 10.0; Win64; x64) AppleWebKit/537.36 (KHTML, like Gecko) Chrome/89.0.4389.82 Safari/537.36","Win32","en-US",3195.51499999943,5602.45000000214,4052.93499999971,0.34375,121.194687500179,137.333181818163,399.514710743746
"20210311_172844_tlja7","767","kjrfrljtrlg","Yes","stimuli/MullerLyer_str-16.67_diff-0.3.png",-16.6666666666667,-0.3,1.19500000073458,"arrowup","mullerlyer","arrowdown",83,437,FALSE,3,4,0.4375,194.665624999971,335.726428571174,767.374693876969,"Yes","0.0.1","11/03/2021 17:28:44","20210311","172844",8,1536,722,"1536x722",1536,864,"1536x864",24,24,FALSE,"Netscape","Mozilla","Gecko","5.0 (Windows NT 10.0; Win64; x64) AppleWebKit/537.36 (KHTML, like Gecko) Chrome/89.0.4389.82 Safari/537.36","Mozilla/5.0 (Windows NT 10.0; Win64; x64) AppleWebKit/537.36 (KHTML, like Gecko) Chrome/89.0.4389.82 Safari/537.36","Win32","en-US",3195.51499999943,5602.45000000214,4052.93499999971,0.34375,121.194687500179,137.333181818163,399.514710743746
"20210311_172844_tlja7","767","kjrfrljtrlg","Yes","stimuli/MullerLyer_str50.0_diff0.1.png",50,0.1,76.9299999992654,"arrowdown","mullerlyer","arrowup",85,292,FALSE,3,5,0.4375,194.665624999971,335.726428571174,767.374693876969,"Yes","0.0.1","11/03/2021 17:28:44","20210311","172844",8,1536,722,"1536x722",1536,864,"1536x864",24,24,FALSE,"Netscape","Mozilla","Gecko","5.0 (Windows NT 10.0; Win64; x64) AppleWebKit/537.36 (KHTML, like Gecko) Chrome/89.0.4389.82 Safari/537.36","Mozilla/5.0 (Windows NT 10.0; Win64; x64) AppleWebKit/537.36 (KHTML, like Gecko) Chrome/89.0.4389.82 Safari/537.36","Win32","en-US",3195.51499999943,5602.45000000214,4052.93499999971,0.34375,121.194687500179,137.333181818163,399.514710743746
"20210311_172844_tlja7","767","kjrfrljtrlg","Yes","stimuli/MullerLyer_str-16.67_diff0.3.png",-16.6666666666667,0.3,122.584999997343,"arrowdown","mullerlyer","arrowup",87,320,FALSE,3,6,0.4375,194.665624999971,335.726428571174,767.374693876969,"Yes","0.0.1","11/03/2021 17:28:44","20210311","172844",8,1536,722,"1536x722",1536,864,"1536x864",24,24,FALSE,"Netscape","Mozilla","Gecko","5.0 (Windows NT 10.0; Win64; x64) AppleWebKit/537.36 (KHTML, like Gecko) Chrome/89.0.4389.82 Safari/537.36","Mozilla/5.0 (Windows NT 10.0; Win64; x64) AppleWebKit/537.36 (KHTML, like Gecko) Chrome/89.0.4389.82 Safari/537.36","Win32","en-US",3195.51499999943,5602.45000000214,4052.93499999971,0.34375,121.194687500179,137.333181818163,399.514710743746
"20210311_172844_tlja7","767","kjrfrljtrlg","Yes","stimuli/MullerLyer_str50.0_diff-0.1.png",50,-0.1,111.054999997577,"arrowdown","mullerlyer","arrowdown",89,320,TRUE,3,7,0.4375,194.665624999971,335.726428571174,767.374693876969,"Yes","0.0.1","11/03/2021 17:28:44","20210311","172844",8,1536,722,"1536x722",1536,864,"1536x864",24,24,FALSE,"Netscape","Mozilla","Gecko","5.0 (Windows NT 10.0; Win64; x64) AppleWebKit/537.36 (KHTML, like Gecko) Chrome/89.0.4389.82 Safari/537.36","Mozilla/5.0 (Windows NT 10.0; Win64; x64) AppleWebKit/537.36 (KHTML, like Gecko) Chrome/89.0.4389.82 Safari/537.36","Win32","en-US",3195.51499999943,5602.45000000214,4052.93499999971,0.34375,121.194687500179,137.333181818163,399.514710743746
"20210311_172844_tlja7","767","kjrfrljtrlg","Yes","stimuli/MullerLyer_str50.0_diff0.3.png",50,0.3,29.7500000015134,"arrowup","mullerlyer","arrowup",91,300,TRUE,3,8,0.4375,194.665624999971,335.726428571174,767.374693876969,"Yes","0.0.1","11/03/2021 17:28:44","20210311","172844",8,1536,722,"1536x722",1536,864,"1536x864",24,24,FALSE,"Netscape","Mozilla","Gecko","5.0 (Windows NT 10.0; Win64; x64) AppleWebKit/537.36 (KHTML, like Gecko) Chrome/89.0.4389.82 Safari/537.36","Mozilla/5.0 (Windows NT 10.0; Win64; x64) AppleWebKit/537.36 (KHTML, like Gecko) Chrome/89.0.4389.82 Safari/537.36","Win32","en-US",3195.51499999943,5602.45000000214,4052.93499999971,0.34375,121.194687500179,137.333181818163,399.514710743746
"20210311_172844_tlja7","767","kjrfrljtrlg","Yes","stimuli/MullerLyer_str-16.67_diff-0.1.png",-16.6666666666667,-0.1,14.0749999991385,"arrowup","mullerlyer","arrowdown",93,419,FALSE,3,9,0.4375,194.665624999971,335.726428571174,767.374693876969,"Yes","0.0.1","11/03/2021 17:28:44","20210311","172844",8,1536,722,"1536x722",1536,864,"1536x864",24,24,FALSE,"Netscape","Mozilla","Gecko","5.0 (Windows NT 10.0; Win64; x64) AppleWebKit/537.36 (KHTML, like Gecko) Chrome/89.0.4389.82 Safari/537.36","Mozilla/5.0 (Windows NT 10.0; Win64; x64) AppleWebKit/537.36 (KHTML, like Gecko) Chrome/89.0.4389.82 Safari/537.36","Win32","en-US",3195.51499999943,5602.45000000214,4052.93499999971,0.34375,121.194687500179,137.333181818163,399.514710743746
"20210311_172844_tlja7","767","kjrfrljtrlg","Yes","stimuli/MullerLyer_str-50.0_diff0.3.png",-50,0.3,76.984999999695,"arrowdown","mullerlyer","arrowup",95,479,FALSE,3,10,0.4375,194.665624999971,335.726428571174,767.374693876969,"Yes","0.0.1","11/03/2021 17:28:44","20210311","172844",8,1536,722,"1536x722",1536,864,"1536x864",24,24,FALSE,"Netscape","Mozilla","Gecko","5.0 (Windows NT 10.0; Win64; x64) AppleWebKit/537.36 (KHTML, like Gecko) Chrome/89.0.4389.82 Safari/537.36","Mozilla/5.0 (Windows NT 10.0; Win64; x64) AppleWebKit/537.36 (KHTML, like Gecko) Chrome/89.0.4389.82 Safari/537.36","Win32","en-US",3195.51499999943,5602.45000000214,4052.93499999971,0.34375,121.194687500179,137.333181818163,399.514710743746
"20210311_172844_tlja7","767","kjrfrljtrlg","Yes","stimuli/MullerLyer_str50.0_diff-0.3.png",50,-0.3,84.0100000023085,"arrowdown","mullerlyer","arrowdown",97,393,TRUE,3,11,0.4375,194.665624999971,335.726428571174,767.374693876969,"Yes","0.0.1","11/03/2021 17:28:44","20210311","172844",8,1536,722,"1536x722",1536,864,"1536x864",24,24,FALSE,"Netscape","Mozilla","Gecko","5.0 (Windows NT 10.0; Win64; x64) AppleWebKit/537.36 (KHTML, like Gecko) Chrome/89.0.4389.82 Safari/537.36","Mozilla/5.0 (Windows NT 10.0; Win64; x64) AppleWebKit/537.36 (KHTML, like Gecko) Chrome/89.0.4389.82 Safari/537.36","Win32","en-US",3195.51499999943,5602.45000000214,4052.93499999971,0.34375,121.194687500179,137.333181818163,399.514710743746
"20210311_172844_tlja7","767","kjrfrljtrlg","Yes","stimuli/MullerLyer_str-50.0_diff0.1.png",-50,0.1,194.660000001022,"arrowdown","mullerlyer","arrowup",99,290,FALSE,3,12,0.4375,194.665624999971,335.726428571174,767.374693876969,"Yes","0.0.1","11/03/2021 17:28:44","20210311","172844",8,1536,722,"1536x722",1536,864,"1536x864",24,24,FALSE,"Netscape","Mozilla","Gecko","5.0 (Windows NT 10.0; Win64; x64) AppleWebKit/537.36 (KHTML, like Gecko) Chrome/89.0.4389.82 Safari/537.36","Mozilla/5.0 (Windows NT 10.0; Win64; x64) AppleWebKit/537.36 (KHTML, like Gecko) Chrome/89.0.4389.82 Safari/537.36","Win32","en-US",3195.51499999943,5602.45000000214,4052.93499999971,0.34375,121.194687500179,137.333181818163,399.514710743746
"20210311_172844_tlja7","767","kjrfrljtrlg","Yes","stimuli/MullerLyer_str16.67_diff0.1.png",16.6666666666667,0.1,201.120000001538,"arrowdown","mullerlyer","arrowup",101,292,FALSE,3,13,0.4375,194.665624999971,335.726428571174,767.374693876969,"Yes","0.0.1","11/03/2021 17:28:44","20210311","172844",8,1536,722,"1536x722",1536,864,"1536x864",24,24,FALSE,"Netscape","Mozilla","Gecko","5.0 (Windows NT 10.0; Win64; x64) AppleWebKit/537.36 (KHTML, like Gecko) Chrome/89.0.4389.82 Safari/537.36","Mozilla/5.0 (Windows NT 10.0; Win64; x64) AppleWebKit/537.36 (KHTML, like Gecko) Chrome/89.0.4389.82 Safari/537.36","Win32","en-US",3195.51499999943,5602.45000000214,4052.93499999971,0.34375,121.194687500179,137.333181818163,399.514710743746
"20210311_172844_tlja7","767","kjrfrljtrlg","Yes","stimuli/MullerLyer_str-50.0_diff-0.3.png",-50,-0.3,98.0249999993248,"arrowdown","mullerlyer","arrowdown",103,360,TRUE,3,14,0.4375,194.665624999971,335.726428571174,767.374693876969,"Yes","0.0.1","11/03/2021 17:28:44","20210311","172844",8,1536,722,"1536x722",1536,864,"1536x864",24,24,FALSE,"Netscape","Mozilla","Gecko","5.0 (Windows NT 10.0; Win64; x64) AppleWebKit/537.36 (KHTML, like Gecko) Chrome/89.0.4389.82 Safari/537.36","Mozilla/5.0 (Windows NT 10.0; Win64; x64) AppleWebKit/537.36 (KHTML, like Gecko) Chrome/89.0.4389.82 Safari/537.36","Win32","en-US",3195.51499999943,5602.45000000214,4052.93499999971,0.34375,121.194687500179,137.333181818163,399.514710743746
"20210311_172844_tlja7","767","kjrfrljtrlg","Yes","stimuli/MullerLyer_str16.67_diff-0.1.png",16.6666666666667,-0.1,43.2600000021921,"arrowup","mullerlyer","arrowdown",105,481,FALSE,3,15,0.4375,194.665624999971,335.726428571174,767.374693876969,"Yes","0.0.1","11/03/2021 17:28:44","20210311","172844",8,1536,722,"1536x722",1536,864,"1536x864",24,24,FALSE,"Netscape","Mozilla","Gecko","5.0 (Windows NT 10.0; Win64; x64) AppleWebKit/537.36 (KHTML, like Gecko) Chrome/89.0.4389.82 Safari/537.36","Mozilla/5.0 (Windows NT 10.0; Win64; x64) AppleWebKit/537.36 (KHTML, like Gecko) Chrome/89.0.4389.82 Safari/537.36","Win32","en-US",3195.51499999943,5602.45000000214,4052.93499999971,0.34375,121.194687500179,137.333181818163,399.514710743746
"20210311_172844_tlja7","767","kjrfrljtrlg","Yes","stimuli/MullerLyer_str-50.0_diff-0.1.png",-50,-0.1,16.3649999994959,"arrowdown","mullerlyer","arrowdown",107,383,TRUE,3,16,0.4375,194.665624999971,335.726428571174,767.374693876969,"Yes","0.0.1","11/03/2021 17:28:44","20210311","172844",8,1536,722,"1536x722",1536,864,"1536x864",24,24,FALSE,"Netscape","Mozilla","Gecko","5.0 (Windows NT 10.0; Win64; x64) AppleWebKit/537.36 (KHTML, like Gecko) Chrome/89.0.4389.82 Safari/537.36","Mozilla/5.0 (Windows NT 10.0; Win64; x64) AppleWebKit/537.36 (KHTML, like Gecko) Chrome/89.0.4389.82 Safari/537.36","Win32","en-US",3195.51499999943,5602.45000000214,4052.93499999971,0.34375,121.194687500179,137.333181818163,399.514710743746
"20210311_172844_tlja7","767","kjrfrljtrlg","Yes","stimuli/Ponzo_str6.67_diff0.1.png",6.66666666666667,0.1,817.150000002584,"arrowdown","ponzo","arrowup",112,2475,FALSE,4,1,0.3125,112.10750000032,34.4210000002931,110.147200000938,"Yes","0.0.1","11/03/2021 17:28:44","20210311","172844",8,1536,722,"1536x722",1536,864,"1536x864",24,24,FALSE,"Netscape","Mozilla","Gecko","5.0 (Windows NT 10.0; Win64; x64) AppleWebKit/537.36 (KHTML, like Gecko) Chrome/89.0.4389.82 Safari/537.36","Mozilla/5.0 (Windows NT 10.0; Win64; x64) AppleWebKit/537.36 (KHTML, like Gecko) Chrome/89.0.4389.82 Safari/537.36","Win32","en-US",3195.51499999943,5602.45000000214,4052.93499999971,0.34375,121.194687500179,137.333181818163,399.514710743746
"20210311_172844_tlja7","767","kjrfrljtrlg","Yes","stimuli/Ponzo_str-20.0_diff0.3.png",-20,0.3,73.4850000008009,"arrowdown","ponzo","arrowup",114,391,FALSE,4,2,0.3125,112.10750000032,34.4210000002931,110.147200000938,"Yes","0.0.1","11/03/2021 17:28:44","20210311","172844",8,1536,722,"1536x722",1536,864,"1536x864",24,24,FALSE,"Netscape","Mozilla","Gecko","5.0 (Windows NT 10.0; Win64; x64) AppleWebKit/537.36 (KHTML, like Gecko) Chrome/89.0.4389.82 Safari/537.36","Mozilla/5.0 (Windows NT 10.0; Win64; x64) AppleWebKit/537.36 (KHTML, like Gecko) Chrome/89.0.4389.82 Safari/537.36","Win32","en-US",3195.51499999943,5602.45000000214,4052.93499999971,0.34375,121.194687500179,137.333181818163,399.514710743746
"20210311_172844_tlja7","767","kjrfrljtrlg","Yes","stimuli/Ponzo_str20.0_diff-0.3.png",20,-0.3,217.230000002019,"arrowup","ponzo","arrowdown",116,318,FALSE,4,3,0.3125,112.10750000032,34.4210000002931,110.147200000938,"Yes","0.0.1","11/03/2021 17:28:44","20210311","172844",8,1536,722,"1536x722",1536,864,"1536x864",24,24,FALSE,"Netscape","Mozilla","Gecko","5.0 (Windows NT 10.0; Win64; x64) AppleWebKit/537.36 (KHTML, like Gecko) Chrome/89.0.4389.82 Safari/537.36","Mozilla/5.0 (Windows NT 10.0; Win64; x64) AppleWebKit/537.36 (KHTML, like Gecko) Chrome/89.0.4389.82 Safari/537.36","Win32","en-US",3195.51499999943,5602.45000000214,4052.93499999971,0.34375,121.194687500179,137.333181818163,399.514710743746
"20210311_172844_tlja7","767","kjrfrljtrlg","Yes","stimuli/Ponzo_str-20.0_diff-0.1.png",-20,-0.1,16.0600000017439,"arrowup","ponzo","arrowdown",118,468,FALSE,4,4,0.3125,112.10750000032,34.4210000002931,110.147200000938,"Yes","0.0.1","11/03/2021 17:28:44","20210311","172844",8,1536,722,"1536x722",1536,864,"1536x864",24,24,FALSE,"Netscape","Mozilla","Gecko","5.0 (Windows NT 10.0; Win64; x64) AppleWebKit/537.36 (KHTML, like Gecko) Chrome/89.0.4389.82 Safari/537.36","Mozilla/5.0 (Windows NT 10.0; Win64; x64) AppleWebKit/537.36 (KHTML, like Gecko) Chrome/89.0.4389.82 Safari/537.36","Win32","en-US",3195.51499999943,5602.45000000214,4052.93499999971,0.34375,121.194687500179,137.333181818163,399.514710743746
"20210311_172844_tlja7","767","kjrfrljtrlg","Yes","stimuli/Ponzo_str-6.67_diff0.1.png",-6.66666666666667,0.1,68.6150000001362,"arrowup","ponzo","arrowup",120,378,TRUE,4,5,0.3125,112.10750000032,34.4210000002931,110.147200000938,"Yes","0.0.1","11/03/2021 17:28:44","20210311","172844",8,1536,722,"1536x722",1536,864,"1536x864",24,24,FALSE,"Netscape","Mozilla","Gecko","5.0 (Windows NT 10.0; Win64; x64) AppleWebKit/537.36 (KHTML, like Gecko) Chrome/89.0.4389.82 Safari/537.36","Mozilla/5.0 (Windows NT 10.0; Win64; x64) AppleWebKit/537.36 (KHTML, like Gecko) Chrome/89.0.4389.82 Safari/537.36","Win32","en-US",3195.51499999943,5602.45000000214,4052.93499999971,0.34375,121.194687500179,137.333181818163,399.514710743746
"20210311_172844_tlja7","767","kjrfrljtrlg","Yes","stimuli/Ponzo_str-6.67_diff-0.3.png",-6.66666666666667,-0.3,16.1499999994703,"arrowdown","ponzo","arrowdown",122,302,TRUE,4,6,0.3125,112.10750000032,34.4210000002931,110.147200000938,"Yes","0.0.1","11/03/2021 17:28:44","20210311","172844",8,1536,722,"1536x722",1536,864,"1536x864",24,24,FALSE,"Netscape","Mozilla","Gecko","5.0 (Windows NT 10.0; Win64; x64) AppleWebKit/537.36 (KHTML, like Gecko) Chrome/89.0.4389.82 Safari/537.36","Mozilla/5.0 (Windows NT 10.0; Win64; x64) AppleWebKit/537.36 (KHTML, like Gecko) Chrome/89.0.4389.82 Safari/537.36","Win32","en-US",3195.51499999943,5602.45000000214,4052.93499999971,0.34375,121.194687500179,137.333181818163,399.514710743746
"20210311_172844_tlja7","767","kjrfrljtrlg","Yes","stimuli/Ponzo_str-6.67_diff-0.1.png",-6.66666666666667,-0.1,43.2849999997416,"arrowdown","ponzo","arrowdown",124,356,TRUE,4,7,0.3125,112.10750000032,34.4210000002931,110.147200000938,"Yes","0.0.1","11/03/2021 17:28:44","20210311","172844",8,1536,722,"1536x722",1536,864,"1536x864",24,24,FALSE,"Netscape","Mozilla","Gecko","5.0 (Windows NT 10.0; Win64; x64) AppleWebKit/537.36 (KHTML, like Gecko) Chrome/89.0.4389.82 Safari/537.36","Mozilla/5.0 (Windows NT 10.0; Win64; x64) AppleWebKit/537.36 (KHTML, like Gecko) Chrome/89.0.4389.82 Safari/537.36","Win32","en-US",3195.51499999943,5602.45000000214,4052.93499999971,0.34375,121.194687500179,137.333181818163,399.514710743746
"20210311_172844_tlja7","767","kjrfrljtrlg","Yes","stimuli/Ponzo_str-6.67_diff0.3.png",-6.66666666666667,0.3,42.1099999985017,"arrowdown","ponzo","arrowup",126,368,FALSE,4,8,0.3125,112.10750000032,34.4210000002931,110.147200000938,"Yes","0.0.1","11/03/2021 17:28:44","20210311","172844",8,1536,722,"1536x722",1536,864,"1536x864",24,24,FALSE,"Netscape","Mozilla","Gecko","5.0 (Windows NT 10.0; Win64; x64) AppleWebKit/537.36 (KHTML, like Gecko) Chrome/89.0.4389.82 Safari/537.36","Mozilla/5.0 (Windows NT 10.0; Win64; x64) AppleWebKit/537.36 (KHTML, like Gecko) Chrome/89.0.4389.82 Safari/537.36","Win32","en-US",3195.51499999943,5602.45000000214,4052.93499999971,0.34375,121.194687500179,137.333181818163,399.514710743746
"20210311_172844_tlja7","767","kjrfrljtrlg","Yes","stimuli/Ponzo_str6.67_diff-0.1.png",6.66666666666667,-0.1,105.330000002141,"arrowup","ponzo","arrowdown",128,478,FALSE,4,9,0.3125,112.10750000032,34.4210000002931,110.147200000938,"Yes","0.0.1","11/03/2021 17:28:44","20210311","172844",8,1536,722,"1536x722",1536,864,"1536x864",24,24,FALSE,"Netscape","Mozilla","Gecko","5.0 (Windows NT 10.0; Win64; x64) AppleWebKit/537.36 (KHTML, like Gecko) Chrome/89.0.4389.82 Safari/537.36","Mozilla/5.0 (Windows NT 10.0; Win64; x64) AppleWebKit/537.36 (KHTML, like Gecko) Chrome/89.0.4389.82 Safari/537.36","Win32","en-US",3195.51499999943,5602.45000000214,4052.93499999971,0.34375,121.194687500179,137.333181818163,399.514710743746
"20210311_172844_tlja7","767","kjrfrljtrlg","Yes","stimuli/Ponzo_str6.67_diff-0.3.png",6.66666666666667,-0.3,35.5549999985669,"arrowup","ponzo","arrowdown",130,386,FALSE,4,10,0.3125,112.10750000032,34.4210000002931,110.147200000938,"Yes","0.0.1","11/03/2021 17:28:44","20210311","172844",8,1536,722,"1536x722",1536,864,"1536x864",24,24,FALSE,"Netscape","Mozilla","Gecko","5.0 (Windows NT 10.0; Win64; x64) AppleWebKit/537.36 (KHTML, like Gecko) Chrome/89.0.4389.82 Safari/537.36","Mozilla/5.0 (Windows NT 10.0; Win64; x64) AppleWebKit/537.36 (KHTML, like Gecko) Chrome/89.0.4389.82 Safari/537.36","Win32","en-US",3195.51499999943,5602.45000000214,4052.93499999971,0.34375,121.194687500179,137.333181818163,399.514710743746
"20210311_172844_tlja7","767","kjrfrljtrlg","Yes","stimuli/Ponzo_str20.0_diff0.1.png",20,0.1,68.859999999404,"arrowdown","ponzo","arrowup",132,497,FALSE,4,11,0.3125,112.10750000032,34.4210000002931,110.147200000938,"Yes","0.0.1","11/03/2021 17:28:44","20210311","172844",8,1536,722,"1536x722",1536,864,"1536x864",24,24,FALSE,"Netscape","Mozilla","Gecko","5.0 (Windows NT 10.0; Win64; x64) AppleWebKit/537.36 (KHTML, like Gecko) Chrome/89.0.4389.82 Safari/537.36","Mozilla/5.0 (Windows NT 10.0; Win64; x64) AppleWebKit/537.36 (KHTML, like Gecko) Chrome/89.0.4389.82 Safari/537.36","Win32","en-US",3195.51499999943,5602.45000000214,4052.93499999971,0.34375,121.194687500179,137.333181818163,399.514710743746
"20210311_172844_tlja7","767","kjrfrljtrlg","Yes","stimuli/Ponzo_str20.0_diff0.3.png",20,0.3,32.6249999998254,"arrowup","ponzo","arrowup",134,370,TRUE,4,12,0.3125,112.10750000032,34.4210000002931,110.147200000938,"Yes","0.0.1","11/03/2021 17:28:44","20210311","172844",8,1536,722,"1536x722",1536,864,"1536x864",24,24,FALSE,"Netscape","Mozilla","Gecko","5.0 (Windows NT 10.0; Win64; x64) AppleWebKit/537.36 (KHTML, like Gecko) Chrome/89.0.4389.82 Safari/537.36","Mozilla/5.0 (Windows NT 10.0; Win64; x64) AppleWebKit/537.36 (KHTML, like Gecko) Chrome/89.0.4389.82 Safari/537.36","Win32","en-US",3195.51499999943,5602.45000000214,4052.93499999971,0.34375,121.194687500179,137.333181818163,399.514710743746
"20210311_172844_tlja7","767","kjrfrljtrlg","Yes","stimuli/Ponzo_str6.67_diff0.3.png",6.66666666666667,0.3,55.000000000291,"arrowdown","ponzo","arrowup",136,342,FALSE,4,13,0.3125,112.10750000032,34.4210000002931,110.147200000938,"Yes","0.0.1","11/03/2021 17:28:44","20210311","172844",8,1536,722,"1536x722",1536,864,"1536x864",24,24,FALSE,"Netscape","Mozilla","Gecko","5.0 (Windows NT 10.0; Win64; x64) AppleWebKit/537.36 (KHTML, like Gecko) Chrome/89.0.4389.82 Safari/537.36","Mozilla/5.0 (Windows NT 10.0; Win64; x64) AppleWebKit/537.36 (KHTML, like Gecko) Chrome/89.0.4389.82 Safari/537.36","Win32","en-US",3195.51499999943,5602.45000000214,4052.93499999971,0.34375,121.194687500179,137.333181818163,399.514710743746
"20210311_172844_tlja7","767","kjrfrljtrlg","Yes","stimuli/Ponzo_str-20.0_diff0.1.png",-20,0.1,124.789999998029,"arrowdown","ponzo","arrowup",138,329,FALSE,4,14,0.3125,112.10750000032,34.4210000002931,110.147200000938,"Yes","0.0.1","11/03/2021 17:28:44","20210311","172844",8,1536,722,"1536x722",1536,864,"1536x864",24,24,FALSE,"Netscape","Mozilla","Gecko","5.0 (Windows NT 10.0; Win64; x64) AppleWebKit/537.36 (KHTML, like Gecko) Chrome/89.0.4389.82 Safari/537.36","Mozilla/5.0 (Windows NT 10.0; Win64; x64) AppleWebKit/537.36 (KHTML, like Gecko) Chrome/89.0.4389.82 Safari/537.36","Win32","en-US",3195.51499999943,5602.45000000214,4052.93499999971,0.34375,121.194687500179,137.333181818163,399.514710743746
"20210311_172844_tlja7","767","kjrfrljtrlg","Yes","stimuli/Ponzo_str20.0_diff-0.1.png",20,-0.1,66.0449999995762,"arrowup","ponzo","arrowdown",140,312,FALSE,4,15,0.3125,112.10750000032,34.4210000002931,110.147200000938,"Yes","0.0.1","11/03/2021 17:28:44","20210311","172844",8,1536,722,"1536x722",1536,864,"1536x864",24,24,FALSE,"Netscape","Mozilla","Gecko","5.0 (Windows NT 10.0; Win64; x64) AppleWebKit/537.36 (KHTML, like Gecko) Chrome/89.0.4389.82 Safari/537.36","Mozilla/5.0 (Windows NT 10.0; Win64; x64) AppleWebKit/537.36 (KHTML, like Gecko) Chrome/89.0.4389.82 Safari/537.36","Win32","en-US",3195.51499999943,5602.45000000214,4052.93499999971,0.34375,121.194687500179,137.333181818163,399.514710743746
"20210311_172844_tlja7","767","kjrfrljtrlg","Yes","stimuli/Ponzo_str-20.0_diff-0.3.png",-20,-0.3,11.4300000022922,"arrowdown","ponzo","arrowdown",142,387,TRUE,4,16,0.3125,112.10750000032,34.4210000002931,110.147200000938,"Yes","0.0.1","11/03/2021 17:28:44","20210311","172844",8,1536,722,"1536x722",1536,864,"1536x864",24,24,FALSE,"Netscape","Mozilla","Gecko","5.0 (Windows NT 10.0; Win64; x64) AppleWebKit/537.36 (KHTML, like Gecko) Chrome/89.0.4389.82 Safari/537.36","Mozilla/5.0 (Windows NT 10.0; Win64; x64) AppleWebKit/537.36 (KHTML, like Gecko) Chrome/89.0.4389.82 Safari/537.36","Win32","en-US",3195.51499999943,5602.45000000214,4052.93499999971,0.34375,121.194687500179,137.333181818163,399.514710743746
"20210311_173827_r7pc0","","","No","stimuli/Delboeuf_str-1.0_diff-0.33.png",-1,-0.333333333333333,565.380000000005,"arrowright","delboeuf","arrowright",8,2453,TRUE,1,1,0.6875,604.050312499339,621.13454545397,903.468429751229,"Yes","0.0.1","11/03/2021 17:38:27","20210311","173827",8,1536,722,"1536x722",1536,864,"1536x864",24,24,FALSE,"Netscape","Mozilla","Gecko","5.0 (Windows NT 10.0; Win64; x64) AppleWebKit/537.36 (KHTML, like Gecko) Chrome/89.0.4389.82 Safari/537.36","Mozilla/5.0 (Windows NT 10.0; Win64; x64) AppleWebKit/537.36 (KHTML, like Gecko) Chrome/89.0.4389.82 Safari/537.36","Win32","en-US",784.66500000286,732.175000001007,4960.05999999761,0.71875,617.041718749817,640.942065217172,891.745482041282
"20210311_173827_r7pc0","","","No","stimuli/Delboeuf_str-0.33_diff-1.0.png",-0.333333333333333,-1,614.969999998721,"arrowright","delboeuf","arrowright",10,324,TRUE,1,2,0.6875,604.050312499339,621.13454545397,903.468429751229,"Yes","0.0.1","11/03/2021 17:38:27","20210311","173827",8,1536,722,"1536x722",1536,864,"1536x864",24,24,FALSE,"Netscape","Mozilla","Gecko","5.0 (Windows NT 10.0; Win64; x64) AppleWebKit/537.36 (KHTML, like Gecko) Chrome/89.0.4389.82 Safari/537.36","Mozilla/5.0 (Windows NT 10.0; Win64; x64) AppleWebKit/537.36 (KHTML, like Gecko) Chrome/89.0.4389.82 Safari/537.36","Win32","en-US",784.66500000286,732.175000001007,4960.05999999761,0.71875,617.041718749817,640.942065217172,891.745482041282
"20210311_173827_r7pc0","","","No","stimuli/Delboeuf_str1.0_diff0.33.png",1,0.333333333333333,894.714999998541,"arrowleft","delboeuf","arrowleft",12,296,TRUE,1,3,0.6875,604.050312499339,621.13454545397,903.468429751229,"Yes","0.0.1","11/03/2021 17:38:27","20210311","173827",8,1536,722,"1536x722",1536,864,"1536x864",24,24,FALSE,"Netscape","Mozilla","Gecko","5.0 (Windows NT 10.0; Win64; x64) AppleWebKit/537.36 (KHTML, like Gecko) Chrome/89.0.4389.82 Safari/537.36","Mozilla/5.0 (Windows NT 10.0; Win64; x64) AppleWebKit/537.36 (KHTML, like Gecko) Chrome/89.0.4389.82 Safari/537.36","Win32","en-US",784.66500000286,732.175000001007,4960.05999999761,0.71875,617.041718749817,640.942065217172,891.745482041282
"20210311_173827_r7pc0","","","No","stimuli/Delboeuf_str0.33_diff1.0.png",0.333333333333333,1,545.324999999139,"arrowleft","delboeuf","arrowleft",14,405,TRUE,1,4,0.6875,604.050312499339,621.13454545397,903.468429751229,"Yes","0.0.1","11/03/2021 17:38:27","20210311","173827",8,1536,722,"1536x722",1536,864,"1536x864",24,24,FALSE,"Netscape","Mozilla","Gecko","5.0 (Windows NT 10.0; Win64; x64) AppleWebKit/537.36 (KHTML, like Gecko) Chrome/89.0.4389.82 Safari/537.36","Mozilla/5.0 (Windows NT 10.0; Win64; x64) AppleWebKit/537.36 (KHTML, like Gecko) Chrome/89.0.4389.82 Safari/537.36","Win32","en-US",784.66500000286,732.175000001007,4960.05999999761,0.71875,617.041718749817,640.942065217172,891.745482041282
"20210311_173827_r7pc0","","","No","stimuli/Delboeuf_str1.0_diff-1.0.png",1,-1,621.359999997367,"arrowright","delboeuf","arrowright",16,437,TRUE,1,5,0.6875,604.050312499339,621.13454545397,903.468429751229,"Yes","0.0.1","11/03/2021 17:38:27","20210311","173827",8,1536,722,"1536x722",1536,864,"1536x864",24,24,FALSE,"Netscape","Mozilla","Gecko","5.0 (Windows NT 10.0; Win64; x64) AppleWebKit/537.36 (KHTML, like Gecko) Chrome/89.0.4389.82 Safari/537.36","Mozilla/5.0 (Windows NT 10.0; Win64; x64) AppleWebKit/537.36 (KHTML, like Gecko) Chrome/89.0.4389.82 Safari/537.36","Win32","en-US",784.66500000286,732.175000001007,4960.05999999761,0.71875,617.041718749817,640.942065217172,891.745482041282
"20210311_173827_r7pc0","","","No","stimuli/Delboeuf_str-0.33_diff1.0.png",-0.333333333333333,1,709.019999998418,"arrowleft","delboeuf","arrowleft",18,300,TRUE,1,6,0.6875,604.050312499339,621.13454545397,903.468429751229,"Yes","0.0.1","11/03/2021 17:38:27","20210311","173827",8,1536,722,"1536x722",1536,864,"1536x864",24,24,FALSE,"Netscape","Mozilla","Gecko","5.0 (Windows NT 10.0; Win64; x64) AppleWebKit/537.36 (KHTML, like Gecko) Chrome/89.0.4389.82 Safari/537.36","Mozilla/5.0 (Windows NT 10.0; Win64; x64) AppleWebKit/537.36 (KHTML, like Gecko) Chrome/89.0.4389.82 Safari/537.36","Win32","en-US",784.66500000286,732.175000001007,4960.05999999761,0.71875,617.041718749817,640.942065217172,891.745482041282
"20210311_173827_r7pc0","","","No","stimuli/Delboeuf_str-1.0_diff0.33.png",-1,0.333333333333333,596.809999999095,"arrowleft","delboeuf","arrowleft",20,404,TRUE,1,7,0.6875,604.050312499339,621.13454545397,903.468429751229,"Yes","0.0.1","11/03/2021 17:38:27","20210311","173827",8,1536,722,"1536x722",1536,864,"1536x864",24,24,FALSE,"Netscape","Mozilla","Gecko","5.0 (Windows NT 10.0; Win64; x64) AppleWebKit/537.36 (KHTML, like Gecko) Chrome/89.0.4389.82 Safari/537.36","Mozilla/5.0 (Windows NT 10.0; Win64; x64) AppleWebKit/537.36 (KHTML, like Gecko) Chrome/89.0.4389.82 Safari/537.36","Win32","en-US",784.66500000286,732.175000001007,4960.05999999761,0.71875,617.041718749817,640.942065217172,891.745482041282
"20210311_173827_r7pc0","","","No","stimuli/Delboeuf_str0.33_diff0.33.png",0.333333333333333,0.333333333333333,567.960000000312,"arrowleft","delboeuf","arrowleft",22,357,TRUE,1,8,0.6875,604.050312499339,621.13454545397,903.468429751229,"Yes","0.0.1","11/03/2021 17:38:27","20210311","173827",8,1536,722,"1536x722",1536,864,"1536x864",24,24,FALSE,"Netscape","Mozilla","Gecko","5.0 (Windows NT 10.0; Win64; x64) AppleWebKit/537.36 (KHTML, like Gecko) Chrome/89.0.4389.82 Safari/537.36","Mozilla/5.0 (Windows NT 10.0; Win64; x64) AppleWebKit/537.36 (KHTML, like Gecko) Chrome/89.0.4389.82 Safari/537.36","Win32","en-US",784.66500000286,732.175000001007,4960.05999999761,0.71875,617.041718749817,640.942065217172,891.745482041282
"20210311_173827_r7pc0","","","No","stimuli/Delboeuf_str1.0_diff-0.33.png",1,-0.333333333333333,634.584999999788,"arrowleft","delboeuf","arrowright",24,484,FALSE,1,9,0.6875,604.050312499339,621.13454545397,903.468429751229,"Yes","0.0.1","11/03/2021 17:38:27","20210311","173827",8,1536,722,"1536x722",1536,864,"1536x864",24,24,FALSE,"Netscape","Mozilla","Gecko","5.0 (Windows NT 10.0; Win64; x64) AppleWebKit/537.36 (KHTML, like Gecko) Chrome/89.0.4389.82 Safari/537.36","Mozilla/5.0 (Windows NT 10.0; Win64; x64) AppleWebKit/537.36 (KHTML, like Gecko) Chrome/89.0.4389.82 Safari/537.36","Win32","en-US",784.66500000286,732.175000001007,4960.05999999761,0.71875,617.041718749817,640.942065217172,891.745482041282
"20210311_173827_r7pc0","","","No","stimuli/Delboeuf_str-1.0_diff1.0.png",-1,1,583.910000001197,"arrowleft","delboeuf","arrowleft",26,375,TRUE,1,10,0.6875,604.050312499339,621.13454545397,903.468429751229,"Yes","0.0.1","11/03/2021 17:38:27","20210311","173827",8,1536,722,"1536x722",1536,864,"1536x864",24,24,FALSE,"Netscape","Mozilla","Gecko","5.0 (Windows NT 10.0; Win64; x64) AppleWebKit/537.36 (KHTML, like Gecko) Chrome/89.0.4389.82 Safari/537.36","Mozilla/5.0 (Windows NT 10.0; Win64; x64) AppleWebKit/537.36 (KHTML, like Gecko) Chrome/89.0.4389.82 Safari/537.36","Win32","en-US",784.66500000286,732.175000001007,4960.05999999761,0.71875,617.041718749817,640.942065217172,891.745482041282
"20210311_173827_r7pc0","","","No","stimuli/Delboeuf_str-1.0_diff-1.0.png",-1,-1,653.874999999971,"arrowleft","delboeuf","arrowright",28,318,FALSE,1,11,0.6875,604.050312499339,621.13454545397,903.468429751229,"Yes","0.0.1","11/03/2021 17:38:27","20210311","173827",8,1536,722,"1536x722",1536,864,"1536x864",24,24,FALSE,"Netscape","Mozilla","Gecko","5.0 (Windows NT 10.0; Win64; x64) AppleWebKit/537.36 (KHTML, like Gecko) Chrome/89.0.4389.82 Safari/537.36","Mozilla/5.0 (Windows NT 10.0; Win64; x64) AppleWebKit/537.36 (KHTML, like Gecko) Chrome/89.0.4389.82 Safari/537.36","Win32","en-US",784.66500000286,732.175000001007,4960.05999999761,0.71875,617.041718749817,640.942065217172,891.745482041282
"20210311_173827_r7pc0","","","No","stimuli/Delboeuf_str0.33_diff-0.33.png",0.333333333333333,-0.333333333333333,527.55999999863,"arrowleft","delboeuf","arrowright",30,325,FALSE,1,12,0.6875,604.050312499339,621.13454545397,903.468429751229,"Yes","0.0.1","11/03/2021 17:38:27","20210311","173827",8,1536,722,"1536x722",1536,864,"1536x864",24,24,FALSE,"Netscape","Mozilla","Gecko","5.0 (Windows NT 10.0; Win64; x64) AppleWebKit/537.36 (KHTML, like Gecko) Chrome/89.0.4389.82 Safari/537.36","Mozilla/5.0 (Windows NT 10.0; Win64; x64) AppleWebKit/537.36 (KHTML, like Gecko) Chrome/89.0.4389.82 Safari/537.36","Win32","en-US",784.66500000286,732.175000001007,4960.05999999761,0.71875,617.041718749817,640.942065217172,891.745482041282
"20210311_173827_r7pc0","","","No","stimuli/Delboeuf_str-0.33_diff0.33.png",-0.333333333333333,0.333333333333333,526.555000000371,"arrowleft","delboeuf","arrowleft",32,322,TRUE,1,13,0.6875,604.050312499339,621.13454545397,903.468429751229,"Yes","0.0.1","11/03/2021 17:38:27","20210311","173827",8,1536,722,"1536x722",1536,864,"1536x864",24,24,FALSE,"Netscape","Mozilla","Gecko","5.0 (Windows NT 10.0; Win64; x64) AppleWebKit/537.36 (KHTML, like Gecko) Chrome/89.0.4389.82 Safari/537.36","Mozilla/5.0 (Windows NT 10.0; Win64; x64) AppleWebKit/537.36 (KHTML, like Gecko) Chrome/89.0.4389.82 Safari/537.36","Win32","en-US",784.66500000286,732.175000001007,4960.05999999761,0.71875,617.041718749817,640.942065217172,891.745482041282
"20210311_173827_r7pc0","","","No","stimuli/Delboeuf_str1.0_diff1.0.png",1,1,606.475000000501,"arrowleft","delboeuf","arrowleft",34,382,TRUE,1,14,0.6875,604.050312499339,621.13454545397,903.468429751229,"Yes","0.0.1","11/03/2021 17:38:27","20210311","173827",8,1536,722,"1536x722",1536,864,"1536x864",24,24,FALSE,"Netscape","Mozilla","Gecko","5.0 (Windows NT 10.0; Win64; x64) AppleWebKit/537.36 (KHTML, like Gecko) Chrome/89.0.4389.82 Safari/537.36","Mozilla/5.0 (Windows NT 10.0; Win64; x64) AppleWebKit/537.36 (KHTML, like Gecko) Chrome/89.0.4389.82 Safari/537.36","Win32","en-US",784.66500000286,732.175000001007,4960.05999999761,0.71875,617.041718749817,640.942065217172,891.745482041282
"20210311_173827_r7pc0","","","No","stimuli/Delboeuf_str0.33_diff-1.0.png",0.333333333333333,-1,527.5049999982,"arrowleft","delboeuf","arrowright",36,333,FALSE,1,15,0.6875,604.050312499339,621.13454545397,903.468429751229,"Yes","0.0.1","11/03/2021 17:38:27","20210311","173827",8,1536,722,"1536x722",1536,864,"1536x864",24,24,FALSE,"Netscape","Mozilla","Gecko","5.0 (Windows NT 10.0; Win64; x64) AppleWebKit/537.36 (KHTML, like Gecko) Chrome/89.0.4389.82 Safari/537.36","Mozilla/5.0 (Windows NT 10.0; Win64; x64) AppleWebKit/537.36 (KHTML, like Gecko) Chrome/89.0.4389.82 Safari/537.36","Win32","en-US",784.66500000286,732.175000001007,4960.05999999761,0.71875,617.041718749817,640.942065217172,891.745482041282
"20210311_173827_r7pc0","","","No","stimuli/Delboeuf_str-0.33_diff-0.33.png",-0.333333333333333,-0.333333333333333,488.799999999173,"arrowleft","delboeuf","arrowright",38,427,FALSE,1,16,0.6875,604.050312499339,621.13454545397,903.468429751229,"Yes","0.0.1","11/03/2021 17:38:27","20210311","173827",8,1536,722,"1536x722",1536,864,"1536x864",24,24,FALSE,"Netscape","Mozilla","Gecko","5.0 (Windows NT 10.0; Win64; x64) AppleWebKit/537.36 (KHTML, like Gecko) Chrome/89.0.4389.82 Safari/537.36","Mozilla/5.0 (Windows NT 10.0; Win64; x64) AppleWebKit/537.36 (KHTML, like Gecko) Chrome/89.0.4389.82 Safari/537.36","Win32","en-US",784.66500000286,732.175000001007,4960.05999999761,0.71875,617.041718749817,640.942065217172,891.745482041282
"20210311_173827_r7pc0","","","No","stimuli/Ebbinghaus_str-0.33_diff-0.33.png",-0.333333333333333,-0.333333333333333,709.124999997584,"arrowright","ebbinghaus","arrowright",43,2329,TRUE,2,1,0.9375,652.410937499781,662.060666666366,706.198044444124,"Yes","0.0.1","11/03/2021 17:38:27","20210311","173827",8,1536,722,"1536x722",1536,864,"1536x864",24,24,FALSE,"Netscape","Mozilla","Gecko","5.0 (Windows NT 10.0; Win64; x64) AppleWebKit/537.36 (KHTML, like Gecko) Chrome/89.0.4389.82 Safari/537.36","Mozilla/5.0 (Windows NT 10.0; Win64; x64) AppleWebKit/537.36 (KHTML, like Gecko) Chrome/89.0.4389.82 Safari/537.36","Win32","en-US",784.66500000286,732.175000001007,4960.05999999761,0.71875,617.041718749817,640.942065217172,891.745482041282
"20210311_173827_r7pc0","","","No","stimuli/Ebbinghaus_str0.33_diff-0.33.png",0.333333333333333,-0.333333333333333,706.425000000309,"arrowright","ebbinghaus","arrowright",45,332,TRUE,2,2,0.9375,652.410937499781,662.060666666366,706.198044444124,"Yes","0.0.1","11/03/2021 17:38:27","20210311","173827",8,1536,722,"1536x722",1536,864,"1536x864",24,24,FALSE,"Netscape","Mozilla","Gecko","5.0 (Windows NT 10.0; Win64; x64) AppleWebKit/537.36 (KHTML, like Gecko) Chrome/89.0.4389.82 Safari/537.36","Mozilla/5.0 (Windows NT 10.0; Win64; x64) AppleWebKit/537.36 (KHTML, like Gecko) Chrome/89.0.4389.82 Safari/537.36","Win32","en-US",784.66500000286,732.175000001007,4960.05999999761,0.71875,617.041718749817,640.942065217172,891.745482041282
"20210311_173827_r7pc0","","","No","stimuli/Ebbinghaus_str1.0_diff-0.33.png",1,-0.333333333333333,571.850000000268,"arrowright","ebbinghaus","arrowright",47,416,TRUE,2,3,0.9375,652.410937499781,662.060666666366,706.198044444124,"Yes","0.0.1","11/03/2021 17:38:27","20210311","173827",8,1536,722,"1536x722",1536,864,"1536x864",24,24,FALSE,"Netscape","Mozilla","Gecko","5.0 (Windows NT 10.0; Win64; x64) AppleWebKit/537.36 (KHTML, like Gecko) Chrome/89.0.4389.82 Safari/537.36","Mozilla/5.0 (Windows NT 10.0; Win64; x64) AppleWebKit/537.36 (KHTML, like Gecko) Chrome/89.0.4389.82 Safari/537.36","Win32","en-US",784.66500000286,732.175000001007,4960.05999999761,0.71875,617.041718749817,640.942065217172,891.745482041282
"20210311_173827_r7pc0","","","No","stimuli/Ebbinghaus_str-1.0_diff-1.0.png",-1,-1,627.51500000013,"arrowright","ebbinghaus","arrowright",49,311,TRUE,2,4,0.9375,652.410937499781,662.060666666366,706.198044444124,"Yes","0.0.1","11/03/2021 17:38:27","20210311","173827",8,1536,722,"1536x722",1536,864,"1536x864",24,24,FALSE,"Netscape","Mozilla","Gecko","5.0 (Windows NT 10.0; Win64; x64) AppleWebKit/537.36 (KHTML, like Gecko) Chrome/89.0.4389.82 Safari/537.36","Mozilla/5.0 (Windows NT 10.0; Win64; x64) AppleWebKit/537.36 (KHTML, like Gecko) Chrome/89.0.4389.82 Safari/537.36","Win32","en-US",784.66500000286,732.175000001007,4960.05999999761,0.71875,617.041718749817,640.942065217172,891.745482041282
"20210311_173827_r7pc0","","","No","stimuli/Ebbinghaus_str-0.33_diff0.33.png",-0.333333333333333,0.333333333333333,688.469999997324,"arrowleft","ebbinghaus","arrowleft",51,337,TRUE,2,5,0.9375,652.410937499781,662.060666666366,706.198044444124,"Yes","0.0.1","11/03/2021 17:38:27","20210311","173827",8,1536,722,"1536x722",1536,864,"1536x864",24,24,FALSE,"Netscape","Mozilla","Gecko","5.0 (Windows NT 10.0; Win64; x64) AppleWebKit/537.36 (KHTML, like Gecko) Chrome/89.0.4389.82 Safari/537.36","Mozilla/5.0 (Windows NT 10.0; Win64; x64) AppleWebKit/537.36 (KHTML, like Gecko) Chrome/89.0.4389.82 Safari/537.36","Win32","en-US",784.66500000286,732.175000001007,4960.05999999761,0.71875,617.041718749817,640.942065217172,891.745482041282
"20210311_173827_r7pc0","","","No","stimuli/Ebbinghaus_str0.33_diff0.33.png",0.333333333333333,0.333333333333333,587.540000000445,"arrowleft","ebbinghaus","arrowleft",53,449,TRUE,2,6,0.9375,652.410937499781,662.060666666366,706.198044444124,"Yes","0.0.1","11/03/2021 17:38:27","20210311","173827",8,1536,722,"1536x722",1536,864,"1536x864",24,24,FALSE,"Netscape","Mozilla","Gecko","5.0 (Windows NT 10.0; Win64; x64) AppleWebKit/537.36 (KHTML, like Gecko) Chrome/89.0.4389.82 Safari/537.36","Mozilla/5.0 (Windows NT 10.0; Win64; x64) AppleWebKit/537.36 (KHTML, like Gecko) Chrome/89.0.4389.82 Safari/537.36","Win32","en-US",784.66500000286,732.175000001007,4960.05999999761,0.71875,617.041718749817,640.942065217172,891.745482041282
"20210311_173827_r7pc0","","","No","stimuli/Ebbinghaus_str-1.0_diff0.33.png",-1,0.333333333333333,686.779999999999,"arrowleft","ebbinghaus","arrowleft",55,308,TRUE,2,7,0.9375,652.410937499781,662.060666666366,706.198044444124,"Yes","0.0.1","11/03/2021 17:38:27","20210311","173827",8,1536,722,"1536x722",1536,864,"1536x864",24,24,FALSE,"Netscape","Mozilla","Gecko","5.0 (Windows NT 10.0; Win64; x64) AppleWebKit/537.36 (KHTML, like Gecko) Chrome/89.0.4389.82 Safari/537.36","Mozilla/5.0 (Windows NT 10.0; Win64; x64) AppleWebKit/537.36 (KHTML, like Gecko) Chrome/89.0.4389.82 Safari/537.36","Win32","en-US",784.66500000286,732.175000001007,4960.05999999761,0.71875,617.041718749817,640.942065217172,891.745482041282
"20210311_173827_r7pc0","","","No","stimuli/Ebbinghaus_str0.33_diff1.0.png",0.333333333333333,1,539.334999997664,"arrowleft","ebbinghaus","arrowleft",57,371,TRUE,2,8,0.9375,652.410937499781,662.060666666366,706.198044444124,"Yes","0.0.1","11/03/2021 17:38:27","20210311","173827",8,1536,722,"1536x722",1536,864,"1536x864",24,24,FALSE,"Netscape","Mozilla","Gecko","5.0 (Windows NT 10.0; Win64; x64) AppleWebKit/537.36 (KHTML, like Gecko) Chrome/89.0.4389.82 Safari/537.36","Mozilla/5.0 (Windows NT 10.0; Win64; x64) AppleWebKit/537.36 (KHTML, like Gecko) Chrome/89.0.4389.82 Safari/537.36","Win32","en-US",784.66500000286,732.175000001007,4960.05999999761,0.71875,617.041718749817,640.942065217172,891.745482041282
"20210311_173827_r7pc0","","","No","stimuli/Ebbinghaus_str-0.33_diff-1.0.png",-0.333333333333333,-1,752.929999998742,"arrowright","ebbinghaus","arrowright",59,410,TRUE,2,9,0.9375,652.410937499781,662.060666666366,706.198044444124,"Yes","0.0.1","11/03/2021 17:38:27","20210311","173827",8,1536,722,"1536x722",1536,864,"1536x864",24,24,FALSE,"Netscape","Mozilla","Gecko","5.0 (Windows NT 10.0; Win64; x64) AppleWebKit/537.36 (KHTML, like Gecko) Chrome/89.0.4389.82 Safari/537.36","Mozilla/5.0 (Windows NT 10.0; Win64; x64) AppleWebKit/537.36 (KHTML, like Gecko) Chrome/89.0.4389.82 Safari/537.36","Win32","en-US",784.66500000286,732.175000001007,4960.05999999761,0.71875,617.041718749817,640.942065217172,891.745482041282
"20210311_173827_r7pc0","","","No","stimuli/Ebbinghaus_str1.0_diff-1.0.png",1,-1,620.720000002621,"arrowright","ebbinghaus","arrowright",61,382,TRUE,2,10,0.9375,652.410937499781,662.060666666366,706.198044444124,"Yes","0.0.1","11/03/2021 17:38:27","20210311","173827",8,1536,722,"1536x722",1536,864,"1536x864",24,24,FALSE,"Netscape","Mozilla","Gecko","5.0 (Windows NT 10.0; Win64; x64) AppleWebKit/537.36 (KHTML, like Gecko) Chrome/89.0.4389.82 Safari/537.36","Mozilla/5.0 (Windows NT 10.0; Win64; x64) AppleWebKit/537.36 (KHTML, like Gecko) Chrome/89.0.4389.82 Safari/537.36","Win32","en-US",784.66500000286,732.175000001007,4960.05999999761,0.71875,617.041718749817,640.942065217172,891.745482041282
"20210311_173827_r7pc0","","","No","stimuli/Ebbinghaus_str-1.0_diff-0.33.png",-1,-0.333333333333333,744.750000001659,"arrowright","ebbinghaus","arrowright",63,383,TRUE,2,11,0.9375,652.410937499781,662.060666666366,706.198044444124,"Yes","0.0.1","11/03/2021 17:38:27","20210311","173827",8,1536,722,"1536x722",1536,864,"1536x864",24,24,FALSE,"Netscape","Mozilla","Gecko","5.0 (Windows NT 10.0; Win64; x64) AppleWebKit/537.36 (KHTML, like Gecko) Chrome/89.0.4389.82 Safari/537.36","Mozilla/5.0 (Windows NT 10.0; Win64; x64) AppleWebKit/537.36 (KHTML, like Gecko) Chrome/89.0.4389.82 Safari/537.36","Win32","en-US",784.66500000286,732.175000001007,4960.05999999761,0.71875,617.041718749817,640.942065217172,891.745482041282
"20210311_173827_r7pc0","","","No","stimuli/Ebbinghaus_str1.0_diff1.0.png",1,1,669.454999999289,"arrowleft","ebbinghaus","arrowleft",65,353,TRUE,2,12,0.9375,652.410937499781,662.060666666366,706.198044444124,"Yes","0.0.1","11/03/2021 17:38:27","20210311","173827",8,1536,722,"1536x722",1536,864,"1536x864",24,24,FALSE,"Netscape","Mozilla","Gecko","5.0 (Windows NT 10.0; Win64; x64) AppleWebKit/537.36 (KHTML, like Gecko) Chrome/89.0.4389.82 Safari/537.36","Mozilla/5.0 (Windows NT 10.0; Win64; x64) AppleWebKit/537.36 (KHTML, like Gecko) Chrome/89.0.4389.82 Safari/537.36","Win32","en-US",784.66500000286,732.175000001007,4960.05999999761,0.71875,617.041718749817,640.942065217172,891.745482041282
"20210311_173827_r7pc0","","","No","stimuli/Ebbinghaus_str-0.33_diff1.0.png",-0.333333333333333,1,683.945000000676,"arrowleft","ebbinghaus","arrowleft",67,431,TRUE,2,13,0.9375,652.410937499781,662.060666666366,706.198044444124,"Yes","0.0.1","11/03/2021 17:38:27","20210311","173827",8,1536,722,"1536x722",1536,864,"1536x864",24,24,FALSE,"Netscape","Mozilla","Gecko","5.0 (Windows NT 10.0; Win64; x64) AppleWebKit/537.36 (KHTML, like Gecko) Chrome/89.0.4389.82 Safari/537.36","Mozilla/5.0 (Windows NT 10.0; Win64; x64) AppleWebKit/537.36 (KHTML, like Gecko) Chrome/89.0.4389.82 Safari/537.36","Win32","en-US",784.66500000286,732.175000001007,4960.05999999761,0.71875,617.041718749817,640.942065217172,891.745482041282
"20210311_173827_r7pc0","","","No","stimuli/Ebbinghaus_str1.0_diff0.33.png",1,0.333333333333333,742.794999998296,"arrowleft","ebbinghaus","arrowleft",69,271,TRUE,2,14,0.9375,652.410937499781,662.060666666366,706.198044444124,"Yes","0.0.1","11/03/2021 17:38:27","20210311","173827",8,1536,722,"1536x722",1536,864,"1536x864",24,24,FALSE,"Netscape","Mozilla","Gecko","5.0 (Windows NT 10.0; Win64; x64) AppleWebKit/537.36 (KHTML, like Gecko) Chrome/89.0.4389.82 Safari/537.36","Mozilla/5.0 (Windows NT 10.0; Win64; x64) AppleWebKit/537.36 (KHTML, like Gecko) Chrome/89.0.4389.82 Safari/537.36","Win32","en-US",784.66500000286,732.175000001007,4960.05999999761,0.71875,617.041718749817,640.942065217172,891.745482041282
"20210311_173827_r7pc0","","","No","stimuli/Ebbinghaus_str0.33_diff-1.0.png",0.333333333333333,-1,507.665000000998,"arrowleft","ebbinghaus","arrowright",71,407,FALSE,2,15,0.9375,652.410937499781,662.060666666366,706.198044444124,"Yes","0.0.1","11/03/2021 17:38:27","20210311","173827",8,1536,722,"1536x722",1536,864,"1536x864",24,24,FALSE,"Netscape","Mozilla","Gecko","5.0 (Windows NT 10.0; Win64; x64) AppleWebKit/537.36 (KHTML, like Gecko) Chrome/89.0.4389.82 Safari/537.36","Mozilla/5.0 (Windows NT 10.0; Win64; x64) AppleWebKit/537.36 (KHTML, like Gecko) Chrome/89.0.4389.82 Safari/537.36","Win32","en-US",784.66500000286,732.175000001007,4960.05999999761,0.71875,617.041718749817,640.942065217172,891.745482041282
"20210311_173827_r7pc0","","","No","stimuli/Ebbinghaus_str-1.0_diff1.0.png",-1,1,599.275000000489,"arrowleft","ebbinghaus","arrowleft",73,318,TRUE,2,16,0.9375,652.410937499781,662.060666666366,706.198044444124,"Yes","0.0.1","11/03/2021 17:38:27","20210311","173827",8,1536,722,"1536x722",1536,864,"1536x864",24,24,FALSE,"Netscape","Mozilla","Gecko","5.0 (Windows NT 10.0; Win64; x64) AppleWebKit/537.36 (KHTML, like Gecko) Chrome/89.0.4389.82 Safari/537.36","Mozilla/5.0 (Windows NT 10.0; Win64; x64) AppleWebKit/537.36 (KHTML, like Gecko) Chrome/89.0.4389.82 Safari/537.36","Win32","en-US",784.66500000286,732.175000001007,4960.05999999761,0.71875,617.041718749817,640.942065217172,891.745482041282
"20210311_173827_r7pc0","","","No","stimuli/MullerLyer_str-50.0_diff0.1.png",-50,0.1,722.690000002331,"arrowdown","mullerlyer","arrowup",78,2443,FALSE,3,1,0.6875,646.981249999726,663.492727272321,965.080330577921,"Yes","0.0.1","11/03/2021 17:38:27","20210311","173827",8,1536,722,"1536x722",1536,864,"1536x864",24,24,FALSE,"Netscape","Mozilla","Gecko","5.0 (Windows NT 10.0; Win64; x64) AppleWebKit/537.36 (KHTML, like Gecko) Chrome/89.0.4389.82 Safari/537.36","Mozilla/5.0 (Windows NT 10.0; Win64; x64) AppleWebKit/537.36 (KHTML, like Gecko) Chrome/89.0.4389.82 Safari/537.36","Win32","en-US",784.66500000286,732.175000001007,4960.05999999761,0.71875,617.041718749817,640.942065217172,891.745482041282
"20210311_173827_r7pc0","","","No","stimuli/MullerLyer_str50.0_diff0.3.png",50,0.3,650.714999999764,"arrowup","mullerlyer","arrowup",80,395,TRUE,3,2,0.6875,646.981249999726,663.492727272321,965.080330577921,"Yes","0.0.1","11/03/2021 17:38:27","20210311","173827",8,1536,722,"1536x722",1536,864,"1536x864",24,24,FALSE,"Netscape","Mozilla","Gecko","5.0 (Windows NT 10.0; Win64; x64) AppleWebKit/537.36 (KHTML, like Gecko) Chrome/89.0.4389.82 Safari/537.36","Mozilla/5.0 (Windows NT 10.0; Win64; x64) AppleWebKit/537.36 (KHTML, like Gecko) Chrome/89.0.4389.82 Safari/537.36","Win32","en-US",784.66500000286,732.175000001007,4960.05999999761,0.71875,617.041718749817,640.942065217172,891.745482041282
"20210311_173827_r7pc0","","","No","stimuli/MullerLyer_str-16.67_diff-0.3.png",-16.6666666666667,-0.3,689.70999999874,"arrowdown","mullerlyer","arrowdown",82,294,TRUE,3,3,0.6875,646.981249999726,663.492727272321,965.080330577921,"Yes","0.0.1","11/03/2021 17:38:27","20210311","173827",8,1536,722,"1536x722",1536,864,"1536x864",24,24,FALSE,"Netscape","Mozilla","Gecko","5.0 (Windows NT 10.0; Win64; x64) AppleWebKit/537.36 (KHTML, like Gecko) Chrome/89.0.4389.82 Safari/537.36","Mozilla/5.0 (Windows NT 10.0; Win64; x64) AppleWebKit/537.36 (KHTML, like Gecko) Chrome/89.0.4389.82 Safari/537.36","Win32","en-US",784.66500000286,732.175000001007,4960.05999999761,0.71875,617.041718749817,640.942065217172,891.745482041282
"20210311_173827_r7pc0","","","No","stimuli/MullerLyer_str-16.67_diff0.1.png",-16.6666666666667,0.1,561.405000000377,"arrowup","mullerlyer","arrowup",84,478,TRUE,3,4,0.6875,646.981249999726,663.492727272321,965.080330577921,"Yes","0.0.1","11/03/2021 17:38:27","20210311","173827",8,1536,722,"1536x722",1536,864,"1536x864",24,24,FALSE,"Netscape","Mozilla","Gecko","5.0 (Windows NT 10.0; Win64; x64) AppleWebKit/537.36 (KHTML, like Gecko) Chrome/89.0.4389.82 Safari/537.36","Mozilla/5.0 (Windows NT 10.0; Win64; x64) AppleWebKit/537.36 (KHTML, like Gecko) Chrome/89.0.4389.82 Safari/537.36","Win32","en-US",784.66500000286,732.175000001007,4960.05999999761,0.71875,617.041718749817,640.942065217172,891.745482041282
"20210311_173827_r7pc0","","","No","stimuli/MullerLyer_str-50.0_diff-0.1.png",-50,-0.1,653.859999998531,"arrowup","mullerlyer","arrowdown",86,265,FALSE,3,5,0.6875,646.981249999726,663.492727272321,965.080330577921,"Yes","0.0.1","11/03/2021 17:38:27","20210311","173827",8,1536,722,"1536x722",1536,864,"1536x864",24,24,FALSE,"Netscape","Mozilla","Gecko","5.0 (Windows NT 10.0; Win64; x64) AppleWebKit/537.36 (KHTML, like Gecko) Chrome/89.0.4389.82 Safari/537.36","Mozilla/5.0 (Windows NT 10.0; Win64; x64) AppleWebKit/537.36 (KHTML, like Gecko) Chrome/89.0.4389.82 Safari/537.36","Win32","en-US",784.66500000286,732.175000001007,4960.05999999761,0.71875,617.041718749817,640.942065217172,891.745482041282
"20210311_173827_r7pc0","","","No","stimuli/MullerLyer_str16.67_diff-0.3.png",16.6666666666667,-0.3,604.269999999815,"arrowdown","mullerlyer","arrowdown",88,471,TRUE,3,6,0.6875,646.981249999726,663.492727272321,965.080330577921,"Yes","0.0.1","11/03/2021 17:38:27","20210311","173827",8,1536,722,"1536x722",1536,864,"1536x864",24,24,FALSE,"Netscape","Mozilla","Gecko","5.0 (Windows NT 10.0; Win64; x64) AppleWebKit/537.36 (KHTML, like Gecko) Chrome/89.0.4389.82 Safari/537.36","Mozilla/5.0 (Windows NT 10.0; Win64; x64) AppleWebKit/537.36 (KHTML, like Gecko) Chrome/89.0.4389.82 Safari/537.36","Win32","en-US",784.66500000286,732.175000001007,4960.05999999761,0.71875,617.041718749817,640.942065217172,891.745482041282
"20210311_173827_r7pc0","","","No","stimuli/MullerLyer_str-16.67_diff-0.1.png",-16.6666666666667,-0.1,578.600000000733,"arrowup","mullerlyer","arrowdown",90,348,FALSE,3,7,0.6875,646.981249999726,663.492727272321,965.080330577921,"Yes","0.0.1","11/03/2021 17:38:27","20210311","173827",8,1536,722,"1536x722",1536,864,"1536x864",24,24,FALSE,"Netscape","Mozilla","Gecko","5.0 (Windows NT 10.0; Win64; x64) AppleWebKit/537.36 (KHTML, like Gecko) Chrome/89.0.4389.82 Safari/537.36","Mozilla/5.0 (Windows NT 10.0; Win64; x64) AppleWebKit/537.36 (KHTML, like Gecko) Chrome/89.0.4389.82 Safari/537.36","Win32","en-US",784.66500000286,732.175000001007,4960.05999999761,0.71875,617.041718749817,640.942065217172,891.745482041282
"20210311_173827_r7pc0","","","No","stimuli/MullerLyer_str50.0_diff-0.1.png",50,-0.1,546.184999999241,"arrowdown","mullerlyer","arrowdown",92,294,TRUE,3,8,0.6875,646.981249999726,663.492727272321,965.080330577921,"Yes","0.0.1","11/03/2021 17:38:27","20210311","173827",8,1536,722,"1536x722",1536,864,"1536x864",24,24,FALSE,"Netscape","Mozilla","Gecko","5.0 (Windows NT 10.0; Win64; x64) AppleWebKit/537.36 (KHTML, like Gecko) Chrome/89.0.4389.82 Safari/537.36","Mozilla/5.0 (Windows NT 10.0; Win64; x64) AppleWebKit/537.36 (KHTML, like Gecko) Chrome/89.0.4389.82 Safari/537.36","Win32","en-US",784.66500000286,732.175000001007,4960.05999999761,0.71875,617.041718749817,640.942065217172,891.745482041282
"20210311_173827_r7pc0","","","No","stimuli/MullerLyer_str-50.0_diff0.3.png",-50,0.3,529.25999999934,"arrowup","mullerlyer","arrowup",94,455,TRUE,3,9,0.6875,646.981249999726,663.492727272321,965.080330577921,"Yes","0.0.1","11/03/2021 17:38:27","20210311","173827",8,1536,722,"1536x722",1536,864,"1536x864",24,24,FALSE,"Netscape","Mozilla","Gecko","5.0 (Windows NT 10.0; Win64; x64) AppleWebKit/537.36 (KHTML, like Gecko) Chrome/89.0.4389.82 Safari/537.36","Mozilla/5.0 (Windows NT 10.0; Win64; x64) AppleWebKit/537.36 (KHTML, like Gecko) Chrome/89.0.4389.82 Safari/537.36","Win32","en-US",784.66500000286,732.175000001007,4960.05999999761,0.71875,617.041718749817,640.942065217172,891.745482041282
"20210311_173827_r7pc0","","","No","stimuli/MullerLyer_str50.0_diff-0.3.png",50,-0.3,702.490000003309,"arrowdown","mullerlyer","arrowdown",96,460,TRUE,3,10,0.6875,646.981249999726,663.492727272321,965.080330577921,"Yes","0.0.1","11/03/2021 17:38:27","20210311","173827",8,1536,722,"1536x722",1536,864,"1536x864",24,24,FALSE,"Netscape","Mozilla","Gecko","5.0 (Windows NT 10.0; Win64; x64) AppleWebKit/537.36 (KHTML, like Gecko) Chrome/89.0.4389.82 Safari/537.36","Mozilla/5.0 (Windows NT 10.0; Win64; x64) AppleWebKit/537.36 (KHTML, like Gecko) Chrome/89.0.4389.82 Safari/537.36","Win32","en-US",784.66500000286,732.175000001007,4960.05999999761,0.71875,617.041718749817,640.942065217172,891.745482041282
"20210311_173827_r7pc0","","","No","stimuli/MullerLyer_str16.67_diff0.3.png",16.6666666666667,0.3,847.794999997859,"arrowup","mullerlyer","arrowup",98,327,TRUE,3,11,0.6875,646.981249999726,663.492727272321,965.080330577921,"Yes","0.0.1","11/03/2021 17:38:27","20210311","173827",8,1536,722,"1536x722",1536,864,"1536x864",24,24,FALSE,"Netscape","Mozilla","Gecko","5.0 (Windows NT 10.0; Win64; x64) AppleWebKit/537.36 (KHTML, like Gecko) Chrome/89.0.4389.82 Safari/537.36","Mozilla/5.0 (Windows NT 10.0; Win64; x64) AppleWebKit/537.36 (KHTML, like Gecko) Chrome/89.0.4389.82 Safari/537.36","Win32","en-US",784.66500000286,732.175000001007,4960.05999999761,0.71875,617.041718749817,640.942065217172,891.745482041282
"20210311_173827_r7pc0","","","No","stimuli/MullerLyer_str-16.67_diff0.3.png",-16.6666666666667,0.3,727.964999998221,"arrowup","mullerlyer","arrowup",100,290,TRUE,3,12,0.6875,646.981249999726,663.492727272321,965.080330577921,"Yes","0.0.1","11/03/2021 17:38:27","20210311","173827",8,1536,722,"1536x722",1536,864,"1536x864",24,24,FALSE,"Netscape","Mozilla","Gecko","5.0 (Windows NT 10.0; Win64; x64) AppleWebKit/537.36 (KHTML, like Gecko) Chrome/89.0.4389.82 Safari/537.36","Mozilla/5.0 (Windows NT 10.0; Win64; x64) AppleWebKit/537.36 (KHTML, like Gecko) Chrome/89.0.4389.82 Safari/537.36","Win32","en-US",784.66500000286,732.175000001007,4960.05999999761,0.71875,617.041718749817,640.942065217172,891.745482041282
"20210311_173827_r7pc0","","","No","stimuli/MullerLyer_str-50.0_diff-0.3.png",-50,-0.3,816.514999998617,"arrowup","mullerlyer","arrowdown",102,346,FALSE,3,13,0.6875,646.981249999726,663.492727272321,965.080330577921,"Yes","0.0.1","11/03/2021 17:38:27","20210311","173827",8,1536,722,"1536x722",1536,864,"1536x864",24,24,FALSE,"Netscape","Mozilla","Gecko","5.0 (Windows NT 10.0; Win64; x64) AppleWebKit/537.36 (KHTML, like Gecko) Chrome/89.0.4389.82 Safari/537.36","Mozilla/5.0 (Windows NT 10.0; Win64; x64) AppleWebKit/537.36 (KHTML, like Gecko) Chrome/89.0.4389.82 Safari/537.36","Win32","en-US",784.66500000286,732.175000001007,4960.05999999761,0.71875,617.041718749817,640.942065217172,891.745482041282
"20210311_173827_r7pc0","","","No","stimuli/MullerLyer_str16.67_diff0.1.png",16.6666666666667,0.1,632.209999999759,"arrowup","mullerlyer","arrowup",104,301,TRUE,3,14,0.6875,646.981249999726,663.492727272321,965.080330577921,"Yes","0.0.1","11/03/2021 17:38:27","20210311","173827",8,1536,722,"1536x722",1536,864,"1536x864",24,24,FALSE,"Netscape","Mozilla","Gecko","5.0 (Windows NT 10.0; Win64; x64) AppleWebKit/537.36 (KHTML, like Gecko) Chrome/89.0.4389.82 Safari/537.36","Mozilla/5.0 (Windows NT 10.0; Win64; x64) AppleWebKit/537.36 (KHTML, like Gecko) Chrome/89.0.4389.82 Safari/537.36","Win32","en-US",784.66500000286,732.175000001007,4960.05999999761,0.71875,617.041718749817,640.942065217172,891.745482041282
"20210311_173827_r7pc0","","","No","stimuli/MullerLyer_str16.67_diff-0.1.png",16.6666666666667,-0.1,281.614999999874,"arrowup","mullerlyer","arrowdown",106,460,FALSE,3,15,0.6875,646.981249999726,663.492727272321,965.080330577921,"Yes","0.0.1","11/03/2021 17:38:27","20210311","173827",8,1536,722,"1536x722",1536,864,"1536x864",24,24,FALSE,"Netscape","Mozilla","Gecko","5.0 (Windows NT 10.0; Win64; x64) AppleWebKit/537.36 (KHTML, like Gecko) Chrome/89.0.4389.82 Safari/537.36","Mozilla/5.0 (Windows NT 10.0; Win64; x64) AppleWebKit/537.36 (KHTML, like Gecko) Chrome/89.0.4389.82 Safari/537.36","Win32","en-US",784.66500000286,732.175000001007,4960.05999999761,0.71875,617.041718749817,640.942065217172,891.745482041282
"20210311_173827_r7pc0","","","No","stimuli/MullerLyer_str50.0_diff0.1.png",50,0.1,806.414999999106,"arrowup","mullerlyer","arrowup",108,282,TRUE,3,16,0.6875,646.981249999726,663.492727272321,965.080330577921,"Yes","0.0.1","11/03/2021 17:38:27","20210311","173827",8,1536,722,"1536x722",1536,864,"1536x864",24,24,FALSE,"Netscape","Mozilla","Gecko","5.0 (Windows NT 10.0; Win64; x64) AppleWebKit/537.36 (KHTML, like Gecko) Chrome/89.0.4389.82 Safari/537.36","Mozilla/5.0 (Windows NT 10.0; Win64; x64) AppleWebKit/537.36 (KHTML, like Gecko) Chrome/89.0.4389.82 Safari/537.36","Win32","en-US",784.66500000286,732.175000001007,4960.05999999761,0.71875,617.041718749817,640.942065217172,891.745482041282
"20210311_173827_r7pc0","","","No","stimuli/Ponzo_str-20.0_diff0.3.png",-20,0.3,739.000000001397,"arrowup","ponzo","arrowup",113,2407,TRUE,4,1,0.5625,564.724375000424,602.391666667245,1070.91851851955,"Yes","0.0.1","11/03/2021 17:38:27","20210311","173827",8,1536,722,"1536x722",1536,864,"1536x864",24,24,FALSE,"Netscape","Mozilla","Gecko","5.0 (Windows NT 10.0; Win64; x64) AppleWebKit/537.36 (KHTML, like Gecko) Chrome/89.0.4389.82 Safari/537.36","Mozilla/5.0 (Windows NT 10.0; Win64; x64) AppleWebKit/537.36 (KHTML, like Gecko) Chrome/89.0.4389.82 Safari/537.36","Win32","en-US",784.66500000286,732.175000001007,4960.05999999761,0.71875,617.041718749817,640.942065217172,891.745482041282
"20210311_173827_r7pc0","","","No","stimuli/Ponzo_str6.67_diff-0.1.png",6.66666666666667,-0.1,580.345000002126,"arrowup","ponzo","arrowdown",115,471,FALSE,4,2,0.5625,564.724375000424,602.391666667245,1070.91851851955,"Yes","0.0.1","11/03/2021 17:38:27","20210311","173827",8,1536,722,"1536x722",1536,864,"1536x864",24,24,FALSE,"Netscape","Mozilla","Gecko","5.0 (Windows NT 10.0; Win64; x64) AppleWebKit/537.36 (KHTML, like Gecko) Chrome/89.0.4389.82 Safari/537.36","Mozilla/5.0 (Windows NT 10.0; Win64; x64) AppleWebKit/537.36 (KHTML, like Gecko) Chrome/89.0.4389.82 Safari/537.36","Win32","en-US",784.66500000286,732.175000001007,4960.05999999761,0.71875,617.041718749817,640.942065217172,891.745482041282
"20210311_173827_r7pc0","","","No","stimuli/Ponzo_str20.0_diff-0.1.png",20,-0.1,609.459999999672,"arrowdown","ponzo","arrowdown",117,389,TRUE,4,3,0.5625,564.724375000424,602.391666667245,1070.91851851955,"Yes","0.0.1","11/03/2021 17:38:27","20210311","173827",8,1536,722,"1536x722",1536,864,"1536x864",24,24,FALSE,"Netscape","Mozilla","Gecko","5.0 (Windows NT 10.0; Win64; x64) AppleWebKit/537.36 (KHTML, like Gecko) Chrome/89.0.4389.82 Safari/537.36","Mozilla/5.0 (Windows NT 10.0; Win64; x64) AppleWebKit/537.36 (KHTML, like Gecko) Chrome/89.0.4389.82 Safari/537.36","Win32","en-US",784.66500000286,732.175000001007,4960.05999999761,0.71875,617.041718749817,640.942065217172,891.745482041282
"20210311_173827_r7pc0","","","No","stimuli/Ponzo_str-20.0_diff-0.1.png",-20,-0.1,609.68000000139,"arrowdown","ponzo","arrowdown",119,406,TRUE,4,4,0.5625,564.724375000424,602.391666667245,1070.91851851955,"Yes","0.0.1","11/03/2021 17:38:27","20210311","173827",8,1536,722,"1536x722",1536,864,"1536x864",24,24,FALSE,"Netscape","Mozilla","Gecko","5.0 (Windows NT 10.0; Win64; x64) AppleWebKit/537.36 (KHTML, like Gecko) Chrome/89.0.4389.82 Safari/537.36","Mozilla/5.0 (Windows NT 10.0; Win64; x64) AppleWebKit/537.36 (KHTML, like Gecko) Chrome/89.0.4389.82 Safari/537.36","Win32","en-US",784.66500000286,732.175000001007,4960.05999999761,0.71875,617.041718749817,640.942065217172,891.745482041282
"20210311_173827_r7pc0","","","No","stimuli/Ponzo_str20.0_diff0.1.png",20,0.1,747.064999999566,"arrowdown","ponzo","arrowup",121,311,FALSE,4,5,0.5625,564.724375000424,602.391666667245,1070.91851851955,"Yes","0.0.1","11/03/2021 17:38:27","20210311","173827",8,1536,722,"1536x722",1536,864,"1536x864",24,24,FALSE,"Netscape","Mozilla","Gecko","5.0 (Windows NT 10.0; Win64; x64) AppleWebKit/537.36 (KHTML, like Gecko) Chrome/89.0.4389.82 Safari/537.36","Mozilla/5.0 (Windows NT 10.0; Win64; x64) AppleWebKit/537.36 (KHTML, like Gecko) Chrome/89.0.4389.82 Safari/537.36","Win32","en-US",784.66500000286,732.175000001007,4960.05999999761,0.71875,617.041718749817,640.942065217172,891.745482041282
"20210311_173827_r7pc0","","","No","stimuli/Ponzo_str-20.0_diff0.1.png",-20,0.1,870.585000000574,"arrowup","ponzo","arrowup",123,406,TRUE,4,6,0.5625,564.724375000424,602.391666667245,1070.91851851955,"Yes","0.0.1","11/03/2021 17:38:27","20210311","173827",8,1536,722,"1536x722",1536,864,"1536x864",24,24,FALSE,"Netscape","Mozilla","Gecko","5.0 (Windows NT 10.0; Win64; x64) AppleWebKit/537.36 (KHTML, like Gecko) Chrome/89.0.4389.82 Safari/537.36","Mozilla/5.0 (Windows NT 10.0; Win64; x64) AppleWebKit/537.36 (KHTML, like Gecko) Chrome/89.0.4389.82 Safari/537.36","Win32","en-US",784.66500000286,732.175000001007,4960.05999999761,0.71875,617.041718749817,640.942065217172,891.745482041282
"20210311_173827_r7pc0","","","No","stimuli/Ponzo_str-6.67_diff-0.3.png",-6.66666666666667,-0.3,607.035000000906,"arrowup","ponzo","arrowdown",125,391,FALSE,4,7,0.5625,564.724375000424,602.391666667245,1070.91851851955,"Yes","0.0.1","11/03/2021 17:38:27","20210311","173827",8,1536,722,"1536x722",1536,864,"1536x864",24,24,FALSE,"Netscape","Mozilla","Gecko","5.0 (Windows NT 10.0; Win64; x64) AppleWebKit/537.36 (KHTML, like Gecko) Chrome/89.0.4389.82 Safari/537.36","Mozilla/5.0 (Windows NT 10.0; Win64; x64) AppleWebKit/537.36 (KHTML, like Gecko) Chrome/89.0.4389.82 Safari/537.36","Win32","en-US",784.66500000286,732.175000001007,4960.05999999761,0.71875,617.041718749817,640.942065217172,891.745482041282
"20210311_173827_r7pc0","","","No","stimuli/Ponzo_str6.67_diff0.1.png",6.66666666666667,0.1,752.744999997958,"arrowup","ponzo","arrowup",127,470,TRUE,4,8,0.5625,564.724375000424,602.391666667245,1070.91851851955,"Yes","0.0.1","11/03/2021 17:38:27","20210311","173827",8,1536,722,"1536x722",1536,864,"1536x864",24,24,FALSE,"Netscape","Mozilla","Gecko","5.0 (Windows NT 10.0; Win64; x64) AppleWebKit/537.36 (KHTML, like Gecko) Chrome/89.0.4389.82 Safari/537.36","Mozilla/5.0 (Windows NT 10.0; Win64; x64) AppleWebKit/537.36 (KHTML, like Gecko) Chrome/89.0.4389.82 Safari/537.36","Win32","en-US",784.66500000286,732.175000001007,4960.05999999761,0.71875,617.041718749817,640.942065217172,891.745482041282
"20210311_173827_r7pc0","","","No","stimuli/Ponzo_str-6.67_diff0.1.png",-6.66666666666667,0.1,761.070000000473,"arrowup","ponzo","arrowup",129,469,TRUE,4,9,0.5625,564.724375000424,602.391666667245,1070.91851851955,"Yes","0.0.1","11/03/2021 17:38:27","20210311","173827",8,1536,722,"1536x722",1536,864,"1536x864",24,24,FALSE,"Netscape","Mozilla","Gecko","5.0 (Windows NT 10.0; Win64; x64) AppleWebKit/537.36 (KHTML, like Gecko) Chrome/89.0.4389.82 Safari/537.36","Mozilla/5.0 (Windows NT 10.0; Win64; x64) AppleWebKit/537.36 (KHTML, like Gecko) Chrome/89.0.4389.82 Safari/537.36","Win32","en-US",784.66500000286,732.175000001007,4960.05999999761,0.71875,617.041718749817,640.942065217172,891.745482041282
"20210311_173827_r7pc0","","","No","stimuli/Ponzo_str-6.67_diff-0.1.png",-6.66666666666667,-0.1,636.484999999084,"arrowup","ponzo","arrowdown",131,313,FALSE,4,10,0.5625,564.724375000424,602.391666667245,1070.91851851955,"Yes","0.0.1","11/03/2021 17:38:27","20210311","173827",8,1536,722,"1536x722",1536,864,"1536x864",24,24,FALSE,"Netscape","Mozilla","Gecko","5.0 (Windows NT 10.0; Win64; x64) AppleWebKit/537.36 (KHTML, like Gecko) Chrome/89.0.4389.82 Safari/537.36","Mozilla/5.0 (Windows NT 10.0; Win64; x64) AppleWebKit/537.36 (KHTML, like Gecko) Chrome/89.0.4389.82 Safari/537.36","Win32","en-US",784.66500000286,732.175000001007,4960.05999999761,0.71875,617.041718749817,640.942065217172,891.745482041282
"20210311_173827_r7pc0","","","No","stimuli/Ponzo_str20.0_diff0.3.png",20,0.3,448.615000001155,"arrowup","ponzo","arrowup",133,340,TRUE,4,11,0.5625,564.724375000424,602.391666667245,1070.91851851955,"Yes","0.0.1","11/03/2021 17:38:27","20210311","173827",8,1536,722,"1536x722",1536,864,"1536x864",24,24,FALSE,"Netscape","Mozilla","Gecko","5.0 (Windows NT 10.0; Win64; x64) AppleWebKit/537.36 (KHTML, like Gecko) Chrome/89.0.4389.82 Safari/537.36","Mozilla/5.0 (Windows NT 10.0; Win64; x64) AppleWebKit/537.36 (KHTML, like Gecko) Chrome/89.0.4389.82 Safari/537.36","Win32","en-US",784.66500000286,732.175000001007,4960.05999999761,0.71875,617.041718749817,640.942065217172,891.745482041282
"20210311_173827_r7pc0","","","No","stimuli/Ponzo_str-6.67_diff0.3.png",-6.66666666666667,0.3,388.225000002421,"arrowup","ponzo","arrowup",135,279,TRUE,4,12,0.5625,564.724375000424,602.391666667245,1070.91851851955,"Yes","0.0.1","11/03/2021 17:38:27","20210311","173827",8,1536,722,"1536x722",1536,864,"1536x864",24,24,FALSE,"Netscape","Mozilla","Gecko","5.0 (Windows NT 10.0; Win64; x64) AppleWebKit/537.36 (KHTML, like Gecko) Chrome/89.0.4389.82 Safari/537.36","Mozilla/5.0 (Windows NT 10.0; Win64; x64) AppleWebKit/537.36 (KHTML, like Gecko) Chrome/89.0.4389.82 Safari/537.36","Win32","en-US",784.66500000286,732.175000001007,4960.05999999761,0.71875,617.041718749817,640.942065217172,891.745482041282
"20210311_173827_r7pc0","","","No","stimuli/Ponzo_str6.67_diff0.3.png",6.66666666666667,0.3,242.145000000164,"arrowup","ponzo","arrowup",137,331,TRUE,4,13,0.5625,564.724375000424,602.391666667245,1070.91851851955,"Yes","0.0.1","11/03/2021 17:38:27","20210311","173827",8,1536,722,"1536x722",1536,864,"1536x864",24,24,FALSE,"Netscape","Mozilla","Gecko","5.0 (Windows NT 10.0; Win64; x64) AppleWebKit/537.36 (KHTML, like Gecko) Chrome/89.0.4389.82 Safari/537.36","Mozilla/5.0 (Windows NT 10.0; Win64; x64) AppleWebKit/537.36 (KHTML, like Gecko) Chrome/89.0.4389.82 Safari/537.36","Win32","en-US",784.66500000286,732.175000001007,4960.05999999761,0.71875,617.041718749817,640.942065217172,891.745482041282
"20210311_173827_r7pc0","","","No","stimuli/Ponzo_str-20.0_diff-0.3.png",-20,-0.3,424.295000000711,"arrowup","ponzo","arrowdown",139,469,FALSE,4,14,0.5625,564.724375000424,602.391666667245,1070.91851851955,"Yes","0.0.1","11/03/2021 17:38:27","20210311","173827",8,1536,722,"1536x722",1536,864,"1536x864",24,24,FALSE,"Netscape","Mozilla","Gecko","5.0 (Windows NT 10.0; Win64; x64) AppleWebKit/537.36 (KHTML, like Gecko) Chrome/89.0.4389.82 Safari/537.36","Mozilla/5.0 (Windows NT 10.0; Win64; x64) AppleWebKit/537.36 (KHTML, like Gecko) Chrome/89.0.4389.82 Safari/537.36","Win32","en-US",784.66500000286,732.175000001007,4960.05999999761,0.71875,617.041718749817,640.942065217172,891.745482041282
"20210311_173827_r7pc0","","","No","stimuli/Ponzo_str20.0_diff-0.3.png",20,-0.3,215.254999999161,"arrowup","ponzo","arrowdown",141,457,FALSE,4,15,0.5625,564.724375000424,602.391666667245,1070.91851851955,"Yes","0.0.1","11/03/2021 17:38:27","20210311","173827",8,1536,722,"1536x722",1536,864,"1536x864",24,24,FALSE,"Netscape","Mozilla","Gecko","5.0 (Windows NT 10.0; Win64; x64) AppleWebKit/537.36 (KHTML, like Gecko) Chrome/89.0.4389.82 Safari/537.36","Mozilla/5.0 (Windows NT 10.0; Win64; x64) AppleWebKit/537.36 (KHTML, like Gecko) Chrome/89.0.4389.82 Safari/537.36","Win32","en-US",784.66500000286,732.175000001007,4960.05999999761,0.71875,617.041718749817,640.942065217172,891.745482041282
"20210311_173827_r7pc0","","","No","stimuli/Ponzo_str6.67_diff-0.3.png",6.66666666666667,-0.3,403.585000000021,"arrowup","ponzo","arrowdown",143,269,FALSE,4,16,0.5625,564.724375000424,602.391666667245,1070.91851851955,"Yes","0.0.1","11/03/2021 17:38:27","20210311","173827",8,1536,722,"1536x722",1536,864,"1536x864",24,24,FALSE,"Netscape","Mozilla","Gecko","5.0 (Windows NT 10.0; Win64; x64) AppleWebKit/537.36 (KHTML, like Gecko) Chrome/89.0.4389.82 Safari/537.36","Mozilla/5.0 (Windows NT 10.0; Win64; x64) AppleWebKit/537.36 (KHTML, like Gecko) Chrome/89.0.4389.82 Safari/537.36","Win32","en-US",784.66500000286,732.175000001007,4960.05999999761,0.71875,617.041718749817,640.942065217172,891.745482041282
