"Illusion_Type","RT","Stimulus","Response","Correct_response","Trial_index","Prestimulus_duration","Correct","Illusion_Strength","Illusion_Difference","Block_number","Trial_number","Block_Accuracy","Block_RT_Mean","Block_RT_Mean_Corr","Block_IES","Fullscreen","Participant","Experiment_version","Datetime","Date","Time","Date_timezone","Window_width","Window_height","Window_resolution","Screen_width","Screen_height","Screen_resolution","Screen_colordepth","Screen_pixeldepth","Screen_touchscreen","Browser_name","Browser_codename","Browser_engine","Browser_version","Browser","System_platform","System_language","Duration_Consent","Age","Initials","Duration_InfoGeneral","PlayedBefore","Duration_InfoSession","Grand_Accuracy","Grand_RT_Mean","Grand_RT_Mean_Corr","Grand_IES"
"delboeuf",642.770000002201,"stimuli/Delboeuf_str-0.33_diff-1.0.png","arrowleft","arrowright",7,2495,FALSE,-0.333333333333333,-1,1,1,0.125,76.0053125004561,77.3400000016409,618.720000013127,"Yes","20210311_172844_tlja7","0.0.1","11/03/2021 17:28:44","20210311","172844",8,1536,722,"1536x722",1536,864,"1536x864",24,24,FALSE,"Netscape","Mozilla","Gecko","5.0 (Windows NT 10.0; Win64; x64) AppleWebKit/537.36 (KHTML, like Gecko) Chrome/89.0.4389.82 Safari/537.36","Mozilla/5.0 (Windows NT 10.0; Win64; x64) AppleWebKit/537.36 (KHTML, like Gecko) Chrome/89.0.4389.82 Safari/537.36","Win32","en-US",3195.51499999943,"767","kjrfrljtrlg",5602.45000000214,"Yes",4052.93499999971,0.34375,121.194687500179,137.333181818163,399.514710743746
"delboeuf",36.1249999987194,"stimuli/Delboeuf_str-0.33_diff1.0.png","arrowright","arrowleft",9,413,FALSE,-0.333333333333333,1,1,2,0.125,76.0053125004561,77.3400000016409,618.720000013127,"Yes","20210311_172844_tlja7","0.0.1","11/03/2021 17:28:44","20210311","172844",8,1536,722,"1536x722",1536,864,"1536x864",24,24,FALSE,"Netscape","Mozilla","Gecko","5.0 (Windows NT 10.0; Win64; x64) AppleWebKit/537.36 (KHTML, like Gecko) Chrome/89.0.4389.82 Safari/537.36","Mozilla/5.0 (Windows NT 10.0; Win64; x64) AppleWebKit/537.36 (KHTML, like Gecko) Chrome/89.0.4389.82 Safari/537.36","Win32","en-US",3195.51499999943,"767","kjrfrljtrlg",5602.45000000214,"Yes",4052.93499999971,0.34375,121.194687500179,137.333181818163,399.514710743746
"delboeuf",15.7350000008591,"stimuli/Delboeuf_str-1.0_diff-0.33.png","arrowleft","arrowright",11,254,FALSE,-1,-0.333333333333333,1,3,0.125,76.0053125004561,77.3400000016409,618.720000013127,"Yes","20210311_172844_tlja7","0.0.1","11/03/2021 17:28:44","20210311","172844",8,1536,722,"1536x722",1536,864,"1536x864",24,24,FALSE,"Netscape","Mozilla","Gecko","5.0 (Windows NT 10.0; Win64; x64) AppleWebKit/537.36 (KHTML, like Gecko) Chrome/89.0.4389.82 Safari/537.36","Mozilla/5.0 (Windows NT 10.0; Win64; x64) AppleWebKit/537.36 (KHTML, like Gecko) Chrome/89.0.4389.82 Safari/537.36","Win32","en-US",3195.51499999943,"767","kjrfrljtrlg",5602.45000000214,"Yes",4052.93499999971,0.34375,121.194687500179,137.333181818163,399.514710743746
"delboeuf",12.3250000033295,"stimuli/Delboeuf_str0.33_diff0.33.png","arrowright","arrowleft",13,431,FALSE,0.333333333333333,0.333333333333333,1,4,0.125,76.0053125004561,77.3400000016409,618.720000013127,"Yes","20210311_172844_tlja7","0.0.1","11/03/2021 17:28:44","20210311","172844",8,1536,722,"1536x722",1536,864,"1536x864",24,24,FALSE,"Netscape","Mozilla","Gecko","5.0 (Windows NT 10.0; Win64; x64) AppleWebKit/537.36 (KHTML, like Gecko) Chrome/89.0.4389.82 Safari/537.36","Mozilla/5.0 (Windows NT 10.0; Win64; x64) AppleWebKit/537.36 (KHTML, like Gecko) Chrome/89.0.4389.82 Safari/537.36","Win32","en-US",3195.51499999943,"767","kjrfrljtrlg",5602.45000000214,"Yes",4052.93499999971,0.34375,121.194687500179,137.333181818163,399.514710743746
"delboeuf",48.0449999995471,"stimuli/Delboeuf_str1.0_diff1.0.png","arrowright","arrowleft",15,325,FALSE,1,1,1,5,0.125,76.0053125004561,77.3400000016409,618.720000013127,"Yes","20210311_172844_tlja7","0.0.1","11/03/2021 17:28:44","20210311","172844",8,1536,722,"1536x722",1536,864,"1536x864",24,24,FALSE,"Netscape","Mozilla","Gecko","5.0 (Windows NT 10.0; Win64; x64) AppleWebKit/537.36 (KHTML, like Gecko) Chrome/89.0.4389.82 Safari/537.36","Mozilla/5.0 (Windows NT 10.0; Win64; x64) AppleWebKit/537.36 (KHTML, like Gecko) Chrome/89.0.4389.82 Safari/537.36","Win32","en-US",3195.51499999943,"767","kjrfrljtrlg",5602.45000000214,"Yes",4052.93499999971,0.34375,121.194687500179,137.333181818163,399.514710743746
"delboeuf",14.2699999996694,"stimuli/Delboeuf_str1.0_diff-1.0.png","arrowleft","arrowright",17,425,FALSE,1,-1,1,6,0.125,76.0053125004561,77.3400000016409,618.720000013127,"Yes","20210311_172844_tlja7","0.0.1","11/03/2021 17:28:44","20210311","172844",8,1536,722,"1536x722",1536,864,"1536x864",24,24,FALSE,"Netscape","Mozilla","Gecko","5.0 (Windows NT 10.0; Win64; x64) AppleWebKit/537.36 (KHTML, like Gecko) Chrome/89.0.4389.82 Safari/537.36","Mozilla/5.0 (Windows NT 10.0; Win64; x64) AppleWebKit/537.36 (KHTML, like Gecko) Chrome/89.0.4389.82 Safari/537.36","Win32","en-US",3195.51499999943,"767","kjrfrljtrlg",5602.45000000214,"Yes",4052.93499999971,0.34375,121.194687500179,137.333181818163,399.514710743746
"delboeuf",14.3900000002759,"stimuli/Delboeuf_str-1.0_diff0.33.png","arrowright","arrowleft",19,464,FALSE,-1,0.333333333333333,1,7,0.125,76.0053125004561,77.3400000016409,618.720000013127,"Yes","20210311_172844_tlja7","0.0.1","11/03/2021 17:28:44","20210311","172844",8,1536,722,"1536x722",1536,864,"1536x864",24,24,FALSE,"Netscape","Mozilla","Gecko","5.0 (Windows NT 10.0; Win64; x64) AppleWebKit/537.36 (KHTML, like Gecko) Chrome/89.0.4389.82 Safari/537.36","Mozilla/5.0 (Windows NT 10.0; Win64; x64) AppleWebKit/537.36 (KHTML, like Gecko) Chrome/89.0.4389.82 Safari/537.36","Win32","en-US",3195.51499999943,"767","kjrfrljtrlg",5602.45000000214,"Yes",4052.93499999971,0.34375,121.194687500179,137.333181818163,399.514710743746
"delboeuf",1.76999999894178,"stimuli/Delboeuf_str-0.33_diff-0.33.png","arrowleft","arrowright",21,268,FALSE,-0.333333333333333,-0.333333333333333,1,8,0.125,76.0053125004561,77.3400000016409,618.720000013127,"Yes","20210311_172844_tlja7","0.0.1","11/03/2021 17:28:44","20210311","172844",8,1536,722,"1536x722",1536,864,"1536x864",24,24,FALSE,"Netscape","Mozilla","Gecko","5.0 (Windows NT 10.0; Win64; x64) AppleWebKit/537.36 (KHTML, like Gecko) Chrome/89.0.4389.82 Safari/537.36","Mozilla/5.0 (Windows NT 10.0; Win64; x64) AppleWebKit/537.36 (KHTML, like Gecko) Chrome/89.0.4389.82 Safari/537.36","Win32","en-US",3195.51499999943,"767","kjrfrljtrlg",5602.45000000214,"Yes",4052.93499999971,0.34375,121.194687500179,137.333181818163,399.514710743746
"delboeuf",7.87999999738531,"stimuli/Delboeuf_str1.0_diff0.33.png","arrowright","arrowleft",23,498,FALSE,1,0.333333333333333,1,9,0.125,76.0053125004561,77.3400000016409,618.720000013127,"Yes","20210311_172844_tlja7","0.0.1","11/03/2021 17:28:44","20210311","172844",8,1536,722,"1536x722",1536,864,"1536x864",24,24,FALSE,"Netscape","Mozilla","Gecko","5.0 (Windows NT 10.0; Win64; x64) AppleWebKit/537.36 (KHTML, like Gecko) Chrome/89.0.4389.82 Safari/537.36","Mozilla/5.0 (Windows NT 10.0; Win64; x64) AppleWebKit/537.36 (KHTML, like Gecko) Chrome/89.0.4389.82 Safari/537.36","Win32","en-US",3195.51499999943,"767","kjrfrljtrlg",5602.45000000214,"Yes",4052.93499999971,0.34375,121.194687500179,137.333181818163,399.514710743746
"delboeuf",55.5750000021362,"stimuli/Delboeuf_str-0.33_diff0.33.png","arrowright","arrowleft",25,332,FALSE,-0.333333333333333,0.333333333333333,1,10,0.125,76.0053125004561,77.3400000016409,618.720000013127,"Yes","20210311_172844_tlja7","0.0.1","11/03/2021 17:28:44","20210311","172844",8,1536,722,"1536x722",1536,864,"1536x864",24,24,FALSE,"Netscape","Mozilla","Gecko","5.0 (Windows NT 10.0; Win64; x64) AppleWebKit/537.36 (KHTML, like Gecko) Chrome/89.0.4389.82 Safari/537.36","Mozilla/5.0 (Windows NT 10.0; Win64; x64) AppleWebKit/537.36 (KHTML, like Gecko) Chrome/89.0.4389.82 Safari/537.36","Win32","en-US",3195.51499999943,"767","kjrfrljtrlg",5602.45000000214,"Yes",4052.93499999971,0.34375,121.194687500179,137.333181818163,399.514710743746
"delboeuf",62.965000000986,"stimuli/Delboeuf_str-1.0_diff1.0.png","arrowright","arrowleft",27,323,FALSE,-1,1,1,11,0.125,76.0053125004561,77.3400000016409,618.720000013127,"Yes","20210311_172844_tlja7","0.0.1","11/03/2021 17:28:44","20210311","172844",8,1536,722,"1536x722",1536,864,"1536x864",24,24,FALSE,"Netscape","Mozilla","Gecko","5.0 (Windows NT 10.0; Win64; x64) AppleWebKit/537.36 (KHTML, like Gecko) Chrome/89.0.4389.82 Safari/537.36","Mozilla/5.0 (Windows NT 10.0; Win64; x64) AppleWebKit/537.36 (KHTML, like Gecko) Chrome/89.0.4389.82 Safari/537.36","Win32","en-US",3195.51499999943,"767","kjrfrljtrlg",5602.45000000214,"Yes",4052.93499999971,0.34375,121.194687500179,137.333181818163,399.514710743746
"delboeuf",121.190000001661,"stimuli/Delboeuf_str0.33_diff-1.0.png","arrowright","arrowright",29,296,TRUE,0.333333333333333,-1,1,12,0.125,76.0053125004561,77.3400000016409,618.720000013127,"Yes","20210311_172844_tlja7","0.0.1","11/03/2021 17:28:44","20210311","172844",8,1536,722,"1536x722",1536,864,"1536x864",24,24,FALSE,"Netscape","Mozilla","Gecko","5.0 (Windows NT 10.0; Win64; x64) AppleWebKit/537.36 (KHTML, like Gecko) Chrome/89.0.4389.82 Safari/537.36","Mozilla/5.0 (Windows NT 10.0; Win64; x64) AppleWebKit/537.36 (KHTML, like Gecko) Chrome/89.0.4389.82 Safari/537.36","Win32","en-US",3195.51499999943,"767","kjrfrljtrlg",5602.45000000214,"Yes",4052.93499999971,0.34375,121.194687500179,137.333181818163,399.514710743746
"delboeuf",93.8099999984843,"stimuli/Delboeuf_str0.33_diff1.0.png","arrowright","arrowleft",31,321,FALSE,0.333333333333333,1,1,13,0.125,76.0053125004561,77.3400000016409,618.720000013127,"Yes","20210311_172844_tlja7","0.0.1","11/03/2021 17:28:44","20210311","172844",8,1536,722,"1536x722",1536,864,"1536x864",24,24,FALSE,"Netscape","Mozilla","Gecko","5.0 (Windows NT 10.0; Win64; x64) AppleWebKit/537.36 (KHTML, like Gecko) Chrome/89.0.4389.82 Safari/537.36","Mozilla/5.0 (Windows NT 10.0; Win64; x64) AppleWebKit/537.36 (KHTML, like Gecko) Chrome/89.0.4389.82 Safari/537.36","Win32","en-US",3195.51499999943,"767","kjrfrljtrlg",5602.45000000214,"Yes",4052.93499999971,0.34375,121.194687500179,137.333181818163,399.514710743746
"delboeuf",3.98000000132015,"stimuli/Delboeuf_str1.0_diff-0.33.png","arrowleft","arrowright",33,470,FALSE,1,-0.333333333333333,1,14,0.125,76.0053125004561,77.3400000016409,618.720000013127,"Yes","20210311_172844_tlja7","0.0.1","11/03/2021 17:28:44","20210311","172844",8,1536,722,"1536x722",1536,864,"1536x864",24,24,FALSE,"Netscape","Mozilla","Gecko","5.0 (Windows NT 10.0; Win64; x64) AppleWebKit/537.36 (KHTML, like Gecko) Chrome/89.0.4389.82 Safari/537.36","Mozilla/5.0 (Windows NT 10.0; Win64; x64) AppleWebKit/537.36 (KHTML, like Gecko) Chrome/89.0.4389.82 Safari/537.36","Win32","en-US",3195.51499999943,"767","kjrfrljtrlg",5602.45000000214,"Yes",4052.93499999971,0.34375,121.194687500179,137.333181818163,399.514710743746
"delboeuf",33.4900000016205,"stimuli/Delboeuf_str0.33_diff-0.33.png","arrowright","arrowright",35,482,TRUE,0.333333333333333,-0.333333333333333,1,15,0.125,76.0053125004561,77.3400000016409,618.720000013127,"Yes","20210311_172844_tlja7","0.0.1","11/03/2021 17:28:44","20210311","172844",8,1536,722,"1536x722",1536,864,"1536x864",24,24,FALSE,"Netscape","Mozilla","Gecko","5.0 (Windows NT 10.0; Win64; x64) AppleWebKit/537.36 (KHTML, like Gecko) Chrome/89.0.4389.82 Safari/537.36","Mozilla/5.0 (Windows NT 10.0; Win64; x64) AppleWebKit/537.36 (KHTML, like Gecko) Chrome/89.0.4389.82 Safari/537.36","Win32","en-US",3195.51499999943,"767","kjrfrljtrlg",5602.45000000214,"Yes",4052.93499999971,0.34375,121.194687500179,137.333181818163,399.514710743746
"delboeuf",51.7650000001595,"stimuli/Delboeuf_str-1.0_diff-1.0.png","arrowleft","arrowright",37,415,FALSE,-1,-1,1,16,0.125,76.0053125004561,77.3400000016409,618.720000013127,"Yes","20210311_172844_tlja7","0.0.1","11/03/2021 17:28:44","20210311","172844",8,1536,722,"1536x722",1536,864,"1536x864",24,24,FALSE,"Netscape","Mozilla","Gecko","5.0 (Windows NT 10.0; Win64; x64) AppleWebKit/537.36 (KHTML, like Gecko) Chrome/89.0.4389.82 Safari/537.36","Mozilla/5.0 (Windows NT 10.0; Win64; x64) AppleWebKit/537.36 (KHTML, like Gecko) Chrome/89.0.4389.82 Safari/537.36","Win32","en-US",3195.51499999943,"767","kjrfrljtrlg",5602.45000000214,"Yes",4052.93499999971,0.34375,121.194687500179,137.333181818163,399.514710743746
"ebbinghaus",861.649999998917,"stimuli/Ebbinghaus_str0.33_diff-1.0.png","arrowleft","arrowright",42,2462,FALSE,0.333333333333333,-1,2,1,0.5,102.000312499968,43.057499999577,86.114999999154,"Yes","20210311_172844_tlja7","0.0.1","11/03/2021 17:28:44","20210311","172844",8,1536,722,"1536x722",1536,864,"1536x864",24,24,FALSE,"Netscape","Mozilla","Gecko","5.0 (Windows NT 10.0; Win64; x64) AppleWebKit/537.36 (KHTML, like Gecko) Chrome/89.0.4389.82 Safari/537.36","Mozilla/5.0 (Windows NT 10.0; Win64; x64) AppleWebKit/537.36 (KHTML, like Gecko) Chrome/89.0.4389.82 Safari/537.36","Win32","en-US",3195.51499999943,"767","kjrfrljtrlg",5602.45000000214,"Yes",4052.93499999971,0.34375,121.194687500179,137.333181818163,399.514710743746
"ebbinghaus",31.9899999994959,"stimuli/Ebbinghaus_str0.33_diff1.0.png","arrowleft","arrowleft",44,409,TRUE,0.333333333333333,1,2,2,0.5,102.000312499968,43.057499999577,86.114999999154,"Yes","20210311_172844_tlja7","0.0.1","11/03/2021 17:28:44","20210311","172844",8,1536,722,"1536x722",1536,864,"1536x864",24,24,FALSE,"Netscape","Mozilla","Gecko","5.0 (Windows NT 10.0; Win64; x64) AppleWebKit/537.36 (KHTML, like Gecko) Chrome/89.0.4389.82 Safari/537.36","Mozilla/5.0 (Windows NT 10.0; Win64; x64) AppleWebKit/537.36 (KHTML, like Gecko) Chrome/89.0.4389.82 Safari/537.36","Win32","en-US",3195.51499999943,"767","kjrfrljtrlg",5602.45000000214,"Yes",4052.93499999971,0.34375,121.194687500179,137.333181818163,399.514710743746
"ebbinghaus",54.309999999532,"stimuli/Ebbinghaus_str-1.0_diff0.33.png","arrowright","arrowleft",46,495,FALSE,-1,0.333333333333333,2,3,0.5,102.000312499968,43.057499999577,86.114999999154,"Yes","20210311_172844_tlja7","0.0.1","11/03/2021 17:28:44","20210311","172844",8,1536,722,"1536x722",1536,864,"1536x864",24,24,FALSE,"Netscape","Mozilla","Gecko","5.0 (Windows NT 10.0; Win64; x64) AppleWebKit/537.36 (KHTML, like Gecko) Chrome/89.0.4389.82 Safari/537.36","Mozilla/5.0 (Windows NT 10.0; Win64; x64) AppleWebKit/537.36 (KHTML, like Gecko) Chrome/89.0.4389.82 Safari/537.36","Win32","en-US",3195.51499999943,"767","kjrfrljtrlg",5602.45000000214,"Yes",4052.93499999971,0.34375,121.194687500179,137.333181818163,399.514710743746
"ebbinghaus",83.6850000014238,"stimuli/Ebbinghaus_str1.0_diff0.33.png","arrowright","arrowleft",48,321,FALSE,1,0.333333333333333,2,4,0.5,102.000312499968,43.057499999577,86.114999999154,"Yes","20210311_172844_tlja7","0.0.1","11/03/2021 17:28:44","20210311","172844",8,1536,722,"1536x722",1536,864,"1536x864",24,24,FALSE,"Netscape","Mozilla","Gecko","5.0 (Windows NT 10.0; Win64; x64) AppleWebKit/537.36 (KHTML, like Gecko) Chrome/89.0.4389.82 Safari/537.36","Mozilla/5.0 (Windows NT 10.0; Win64; x64) AppleWebKit/537.36 (KHTML, like Gecko) Chrome/89.0.4389.82 Safari/537.36","Win32","en-US",3195.51499999943,"767","kjrfrljtrlg",5602.45000000214,"Yes",4052.93499999971,0.34375,121.194687500179,137.333181818163,399.514710743746
"ebbinghaus",11.8800000018382,"stimuli/Ebbinghaus_str-0.33_diff-1.0.png","arrowleft","arrowright",50,265,FALSE,-0.333333333333333,-1,2,5,0.5,102.000312499968,43.057499999577,86.114999999154,"Yes","20210311_172844_tlja7","0.0.1","11/03/2021 17:28:44","20210311","172844",8,1536,722,"1536x722",1536,864,"1536x864",24,24,FALSE,"Netscape","Mozilla","Gecko","5.0 (Windows NT 10.0; Win64; x64) AppleWebKit/537.36 (KHTML, like Gecko) Chrome/89.0.4389.82 Safari/537.36","Mozilla/5.0 (Windows NT 10.0; Win64; x64) AppleWebKit/537.36 (KHTML, like Gecko) Chrome/89.0.4389.82 Safari/537.36","Win32","en-US",3195.51499999943,"767","kjrfrljtrlg",5602.45000000214,"Yes",4052.93499999971,0.34375,121.194687500179,137.333181818163,399.514710743746
"ebbinghaus",83.0999999998312,"stimuli/Ebbinghaus_str-1.0_diff-1.0.png","arrowright","arrowright",52,291,TRUE,-1,-1,2,6,0.5,102.000312499968,43.057499999577,86.114999999154,"Yes","20210311_172844_tlja7","0.0.1","11/03/2021 17:28:44","20210311","172844",8,1536,722,"1536x722",1536,864,"1536x864",24,24,FALSE,"Netscape","Mozilla","Gecko","5.0 (Windows NT 10.0; Win64; x64) AppleWebKit/537.36 (KHTML, like Gecko) Chrome/89.0.4389.82 Safari/537.36","Mozilla/5.0 (Windows NT 10.0; Win64; x64) AppleWebKit/537.36 (KHTML, like Gecko) Chrome/89.0.4389.82 Safari/537.36","Win32","en-US",3195.51499999943,"767","kjrfrljtrlg",5602.45000000214,"Yes",4052.93499999971,0.34375,121.194687500179,137.333181818163,399.514710743746
"ebbinghaus",19.0700000021025,"stimuli/Ebbinghaus_str0.33_diff-0.33.png","arrowleft","arrowright",54,474,FALSE,0.333333333333333,-0.333333333333333,2,7,0.5,102.000312499968,43.057499999577,86.114999999154,"Yes","20210311_172844_tlja7","0.0.1","11/03/2021 17:28:44","20210311","172844",8,1536,722,"1536x722",1536,864,"1536x864",24,24,FALSE,"Netscape","Mozilla","Gecko","5.0 (Windows NT 10.0; Win64; x64) AppleWebKit/537.36 (KHTML, like Gecko) Chrome/89.0.4389.82 Safari/537.36","Mozilla/5.0 (Windows NT 10.0; Win64; x64) AppleWebKit/537.36 (KHTML, like Gecko) Chrome/89.0.4389.82 Safari/537.36","Win32","en-US",3195.51499999943,"767","kjrfrljtrlg",5602.45000000214,"Yes",4052.93499999971,0.34375,121.194687500179,137.333181818163,399.514710743746
"ebbinghaus",55.1500000001397,"stimuli/Ebbinghaus_str-0.33_diff-0.33.png","arrowright","arrowright",56,286,TRUE,-0.333333333333333,-0.333333333333333,2,8,0.5,102.000312499968,43.057499999577,86.114999999154,"Yes","20210311_172844_tlja7","0.0.1","11/03/2021 17:28:44","20210311","172844",8,1536,722,"1536x722",1536,864,"1536x864",24,24,FALSE,"Netscape","Mozilla","Gecko","5.0 (Windows NT 10.0; Win64; x64) AppleWebKit/537.36 (KHTML, like Gecko) Chrome/89.0.4389.82 Safari/537.36","Mozilla/5.0 (Windows NT 10.0; Win64; x64) AppleWebKit/537.36 (KHTML, like Gecko) Chrome/89.0.4389.82 Safari/537.36","Win32","en-US",3195.51499999943,"767","kjrfrljtrlg",5602.45000000214,"Yes",4052.93499999971,0.34375,121.194687500179,137.333181818163,399.514710743746
"ebbinghaus",101.839999999356,"stimuli/Ebbinghaus_str-0.33_diff0.33.png","arrowright","arrowleft",58,345,FALSE,-0.333333333333333,0.333333333333333,2,9,0.5,102.000312499968,43.057499999577,86.114999999154,"Yes","20210311_172844_tlja7","0.0.1","11/03/2021 17:28:44","20210311","172844",8,1536,722,"1536x722",1536,864,"1536x864",24,24,FALSE,"Netscape","Mozilla","Gecko","5.0 (Windows NT 10.0; Win64; x64) AppleWebKit/537.36 (KHTML, like Gecko) Chrome/89.0.4389.82 Safari/537.36","Mozilla/5.0 (Windows NT 10.0; Win64; x64) AppleWebKit/537.36 (KHTML, like Gecko) Chrome/89.0.4389.82 Safari/537.36","Win32","en-US",3195.51499999943,"767","kjrfrljtrlg",5602.45000000214,"Yes",4052.93499999971,0.34375,121.194687500179,137.333181818163,399.514710743746
"ebbinghaus",0.974999999016291,"stimuli/Ebbinghaus_str-0.33_diff1.0.png","arrowleft","arrowleft",60,257,TRUE,-0.333333333333333,1,2,10,0.5,102.000312499968,43.057499999577,86.114999999154,"Yes","20210311_172844_tlja7","0.0.1","11/03/2021 17:28:44","20210311","172844",8,1536,722,"1536x722",1536,864,"1536x864",24,24,FALSE,"Netscape","Mozilla","Gecko","5.0 (Windows NT 10.0; Win64; x64) AppleWebKit/537.36 (KHTML, like Gecko) Chrome/89.0.4389.82 Safari/537.36","Mozilla/5.0 (Windows NT 10.0; Win64; x64) AppleWebKit/537.36 (KHTML, like Gecko) Chrome/89.0.4389.82 Safari/537.36","Win32","en-US",3195.51499999943,"767","kjrfrljtrlg",5602.45000000214,"Yes",4052.93499999971,0.34375,121.194687500179,137.333181818163,399.514710743746
"ebbinghaus",74.9049999976705,"stimuli/Ebbinghaus_str-1.0_diff-0.33.png","arrowright","arrowright",62,499,TRUE,-1,-0.333333333333333,2,11,0.5,102.000312499968,43.057499999577,86.114999999154,"Yes","20210311_172844_tlja7","0.0.1","11/03/2021 17:28:44","20210311","172844",8,1536,722,"1536x722",1536,864,"1536x864",24,24,FALSE,"Netscape","Mozilla","Gecko","5.0 (Windows NT 10.0; Win64; x64) AppleWebKit/537.36 (KHTML, like Gecko) Chrome/89.0.4389.82 Safari/537.36","Mozilla/5.0 (Windows NT 10.0; Win64; x64) AppleWebKit/537.36 (KHTML, like Gecko) Chrome/89.0.4389.82 Safari/537.36","Win32","en-US",3195.51499999943,"767","kjrfrljtrlg",5602.45000000214,"Yes",4052.93499999971,0.34375,121.194687500179,137.333181818163,399.514710743746
"ebbinghaus",82.6649999980873,"stimuli/Ebbinghaus_str1.0_diff-0.33.png","arrowright","arrowright",64,365,TRUE,1,-0.333333333333333,2,12,0.5,102.000312499968,43.057499999577,86.114999999154,"Yes","20210311_172844_tlja7","0.0.1","11/03/2021 17:28:44","20210311","172844",8,1536,722,"1536x722",1536,864,"1536x864",24,24,FALSE,"Netscape","Mozilla","Gecko","5.0 (Windows NT 10.0; Win64; x64) AppleWebKit/537.36 (KHTML, like Gecko) Chrome/89.0.4389.82 Safari/537.36","Mozilla/5.0 (Windows NT 10.0; Win64; x64) AppleWebKit/537.36 (KHTML, like Gecko) Chrome/89.0.4389.82 Safari/537.36","Win32","en-US",3195.51499999943,"767","kjrfrljtrlg",5602.45000000214,"Yes",4052.93499999971,0.34375,121.194687500179,137.333181818163,399.514710743746
"ebbinghaus",146.03999999963,"stimuli/Ebbinghaus_str-1.0_diff1.0.png","arrowright","arrowleft",66,333,FALSE,-1,1,2,13,0.5,102.000312499968,43.057499999577,86.114999999154,"Yes","20210311_172844_tlja7","0.0.1","11/03/2021 17:28:44","20210311","172844",8,1536,722,"1536x722",1536,864,"1536x864",24,24,FALSE,"Netscape","Mozilla","Gecko","5.0 (Windows NT 10.0; Win64; x64) AppleWebKit/537.36 (KHTML, like Gecko) Chrome/89.0.4389.82 Safari/537.36","Mozilla/5.0 (Windows NT 10.0; Win64; x64) AppleWebKit/537.36 (KHTML, like Gecko) Chrome/89.0.4389.82 Safari/537.36","Win32","en-US",3195.51499999943,"767","kjrfrljtrlg",5602.45000000214,"Yes",4052.93499999971,0.34375,121.194687500179,137.333181818163,399.514710743746
"ebbinghaus",5.14000000111992,"stimuli/Ebbinghaus_str1.0_diff1.0.png","arrowleft","arrowleft",68,294,TRUE,1,1,2,14,0.5,102.000312499968,43.057499999577,86.114999999154,"Yes","20210311_172844_tlja7","0.0.1","11/03/2021 17:28:44","20210311","172844",8,1536,722,"1536x722",1536,864,"1536x864",24,24,FALSE,"Netscape","Mozilla","Gecko","5.0 (Windows NT 10.0; Win64; x64) AppleWebKit/537.36 (KHTML, like Gecko) Chrome/89.0.4389.82 Safari/537.36","Mozilla/5.0 (Windows NT 10.0; Win64; x64) AppleWebKit/537.36 (KHTML, like Gecko) Chrome/89.0.4389.82 Safari/537.36","Win32","en-US",3195.51499999943,"767","kjrfrljtrlg",5602.45000000214,"Yes",4052.93499999971,0.34375,121.194687500179,137.333181818163,399.514710743746
"ebbinghaus",9.07000000006519,"stimuli/Ebbinghaus_str1.0_diff-1.0.png","arrowleft","arrowright",70,443,FALSE,1,-1,2,15,0.5,102.000312499968,43.057499999577,86.114999999154,"Yes","20210311_172844_tlja7","0.0.1","11/03/2021 17:28:44","20210311","172844",8,1536,722,"1536x722",1536,864,"1536x864",24,24,FALSE,"Netscape","Mozilla","Gecko","5.0 (Windows NT 10.0; Win64; x64) AppleWebKit/537.36 (KHTML, like Gecko) Chrome/89.0.4389.82 Safari/537.36","Mozilla/5.0 (Windows NT 10.0; Win64; x64) AppleWebKit/537.36 (KHTML, like Gecko) Chrome/89.0.4389.82 Safari/537.36","Win32","en-US",3195.51499999943,"767","kjrfrljtrlg",5602.45000000214,"Yes",4052.93499999971,0.34375,121.194687500179,137.333181818163,399.514710743746
"ebbinghaus",10.535000001255,"stimuli/Ebbinghaus_str0.33_diff0.33.png","arrowleft","arrowleft",72,441,TRUE,0.333333333333333,0.333333333333333,2,16,0.5,102.000312499968,43.057499999577,86.114999999154,"Yes","20210311_172844_tlja7","0.0.1","11/03/2021 17:28:44","20210311","172844",8,1536,722,"1536x722",1536,864,"1536x864",24,24,FALSE,"Netscape","Mozilla","Gecko","5.0 (Windows NT 10.0; Win64; x64) AppleWebKit/537.36 (KHTML, like Gecko) Chrome/89.0.4389.82 Safari/537.36","Mozilla/5.0 (Windows NT 10.0; Win64; x64) AppleWebKit/537.36 (KHTML, like Gecko) Chrome/89.0.4389.82 Safari/537.36","Win32","en-US",3195.51499999943,"767","kjrfrljtrlg",5602.45000000214,"Yes",4052.93499999971,0.34375,121.194687500179,137.333181818163,399.514710743746
"mullerlyer",1295.79999999987,"stimuli/MullerLyer_str16.67_diff-0.3.png","arrowdown","arrowdown",77,2489,TRUE,16.6666666666667,-0.3,3,1,0.4375,194.665624999971,335.726428571174,767.374693876969,"Yes","20210311_172844_tlja7","0.0.1","11/03/2021 17:28:44","20210311","172844",8,1536,722,"1536x722",1536,864,"1536x864",24,24,FALSE,"Netscape","Mozilla","Gecko","5.0 (Windows NT 10.0; Win64; x64) AppleWebKit/537.36 (KHTML, like Gecko) Chrome/89.0.4389.82 Safari/537.36","Mozilla/5.0 (Windows NT 10.0; Win64; x64) AppleWebKit/537.36 (KHTML, like Gecko) Chrome/89.0.4389.82 Safari/537.36","Win32","en-US",3195.51499999943,"767","kjrfrljtrlg",5602.45000000214,"Yes",4052.93499999971,0.34375,121.194687500179,137.333181818163,399.514710743746
"mullerlyer",715.079999998125,"stimuli/MullerLyer_str16.67_diff0.3.png","arrowup","arrowup",79,434,TRUE,16.6666666666667,0.3,3,2,0.4375,194.665624999971,335.726428571174,767.374693876969,"Yes","20210311_172844_tlja7","0.0.1","11/03/2021 17:28:44","20210311","172844",8,1536,722,"1536x722",1536,864,"1536x864",24,24,FALSE,"Netscape","Mozilla","Gecko","5.0 (Windows NT 10.0; Win64; x64) AppleWebKit/537.36 (KHTML, like Gecko) Chrome/89.0.4389.82 Safari/537.36","Mozilla/5.0 (Windows NT 10.0; Win64; x64) AppleWebKit/537.36 (KHTML, like Gecko) Chrome/89.0.4389.82 Safari/537.36","Win32","en-US",3195.51499999943,"767","kjrfrljtrlg",5602.45000000214,"Yes",4052.93499999971,0.34375,121.194687500179,137.333181818163,399.514710743746
"mullerlyer",33.755000000383,"stimuli/MullerLyer_str-16.67_diff0.1.png","arrowdown","arrowup",81,320,FALSE,-16.6666666666667,0.1,3,3,0.4375,194.665624999971,335.726428571174,767.374693876969,"Yes","20210311_172844_tlja7","0.0.1","11/03/2021 17:28:44","20210311","172844",8,1536,722,"1536x722",1536,864,"1536x864",24,24,FALSE,"Netscape","Mozilla","Gecko","5.0 (Windows NT 10.0; Win64; x64) AppleWebKit/537.36 (KHTML, like Gecko) Chrome/89.0.4389.82 Safari/537.36","Mozilla/5.0 (Windows NT 10.0; Win64; x64) AppleWebKit/537.36 (KHTML, like Gecko) Chrome/89.0.4389.82 Safari/537.36","Win32","en-US",3195.51499999943,"767","kjrfrljtrlg",5602.45000000214,"Yes",4052.93499999971,0.34375,121.194687500179,137.333181818163,399.514710743746
"mullerlyer",1.19500000073458,"stimuli/MullerLyer_str-16.67_diff-0.3.png","arrowup","arrowdown",83,437,FALSE,-16.6666666666667,-0.3,3,4,0.4375,194.665624999971,335.726428571174,767.374693876969,"Yes","20210311_172844_tlja7","0.0.1","11/03/2021 17:28:44","20210311","172844",8,1536,722,"1536x722",1536,864,"1536x864",24,24,FALSE,"Netscape","Mozilla","Gecko","5.0 (Windows NT 10.0; Win64; x64) AppleWebKit/537.36 (KHTML, like Gecko) Chrome/89.0.4389.82 Safari/537.36","Mozilla/5.0 (Windows NT 10.0; Win64; x64) AppleWebKit/537.36 (KHTML, like Gecko) Chrome/89.0.4389.82 Safari/537.36","Win32","en-US",3195.51499999943,"767","kjrfrljtrlg",5602.45000000214,"Yes",4052.93499999971,0.34375,121.194687500179,137.333181818163,399.514710743746
"mullerlyer",76.9299999992654,"stimuli/MullerLyer_str50.0_diff0.1.png","arrowdown","arrowup",85,292,FALSE,50,0.1,3,5,0.4375,194.665624999971,335.726428571174,767.374693876969,"Yes","20210311_172844_tlja7","0.0.1","11/03/2021 17:28:44","20210311","172844",8,1536,722,"1536x722",1536,864,"1536x864",24,24,FALSE,"Netscape","Mozilla","Gecko","5.0 (Windows NT 10.0; Win64; x64) AppleWebKit/537.36 (KHTML, like Gecko) Chrome/89.0.4389.82 Safari/537.36","Mozilla/5.0 (Windows NT 10.0; Win64; x64) AppleWebKit/537.36 (KHTML, like Gecko) Chrome/89.0.4389.82 Safari/537.36","Win32","en-US",3195.51499999943,"767","kjrfrljtrlg",5602.45000000214,"Yes",4052.93499999971,0.34375,121.194687500179,137.333181818163,399.514710743746
"mullerlyer",122.584999997343,"stimuli/MullerLyer_str-16.67_diff0.3.png","arrowdown","arrowup",87,320,FALSE,-16.6666666666667,0.3,3,6,0.4375,194.665624999971,335.726428571174,767.374693876969,"Yes","20210311_172844_tlja7","0.0.1","11/03/2021 17:28:44","20210311","172844",8,1536,722,"1536x722",1536,864,"1536x864",24,24,FALSE,"Netscape","Mozilla","Gecko","5.0 (Windows NT 10.0; Win64; x64) AppleWebKit/537.36 (KHTML, like Gecko) Chrome/89.0.4389.82 Safari/537.36","Mozilla/5.0 (Windows NT 10.0; Win64; x64) AppleWebKit/537.36 (KHTML, like Gecko) Chrome/89.0.4389.82 Safari/537.36","Win32","en-US",3195.51499999943,"767","kjrfrljtrlg",5602.45000000214,"Yes",4052.93499999971,0.34375,121.194687500179,137.333181818163,399.514710743746
"mullerlyer",111.054999997577,"stimuli/MullerLyer_str50.0_diff-0.1.png","arrowdown","arrowdown",89,320,TRUE,50,-0.1,3,7,0.4375,194.665624999971,335.726428571174,767.374693876969,"Yes","20210311_172844_tlja7","0.0.1","11/03/2021 17:28:44","20210311","172844",8,1536,722,"1536x722",1536,864,"1536x864",24,24,FALSE,"Netscape","Mozilla","Gecko","5.0 (Windows NT 10.0; Win64; x64) AppleWebKit/537.36 (KHTML, like Gecko) Chrome/89.0.4389.82 Safari/537.36","Mozilla/5.0 (Windows NT 10.0; Win64; x64) AppleWebKit/537.36 (KHTML, like Gecko) Chrome/89.0.4389.82 Safari/537.36","Win32","en-US",3195.51499999943,"767","kjrfrljtrlg",5602.45000000214,"Yes",4052.93499999971,0.34375,121.194687500179,137.333181818163,399.514710743746
"mullerlyer",29.7500000015134,"stimuli/MullerLyer_str50.0_diff0.3.png","arrowup","arrowup",91,300,TRUE,50,0.3,3,8,0.4375,194.665624999971,335.726428571174,767.374693876969,"Yes","20210311_172844_tlja7","0.0.1","11/03/2021 17:28:44","20210311","172844",8,1536,722,"1536x722",1536,864,"1536x864",24,24,FALSE,"Netscape","Mozilla","Gecko","5.0 (Windows NT 10.0; Win64; x64) AppleWebKit/537.36 (KHTML, like Gecko) Chrome/89.0.4389.82 Safari/537.36","Mozilla/5.0 (Windows NT 10.0; Win64; x64) AppleWebKit/537.36 (KHTML, like Gecko) Chrome/89.0.4389.82 Safari/537.36","Win32","en-US",3195.51499999943,"767","kjrfrljtrlg",5602.45000000214,"Yes",4052.93499999971,0.34375,121.194687500179,137.333181818163,399.514710743746
"mullerlyer",14.0749999991385,"stimuli/MullerLyer_str-16.67_diff-0.1.png","arrowup","arrowdown",93,419,FALSE,-16.6666666666667,-0.1,3,9,0.4375,194.665624999971,335.726428571174,767.374693876969,"Yes","20210311_172844_tlja7","0.0.1","11/03/2021 17:28:44","20210311","172844",8,1536,722,"1536x722",1536,864,"1536x864",24,24,FALSE,"Netscape","Mozilla","Gecko","5.0 (Windows NT 10.0; Win64; x64) AppleWebKit/537.36 (KHTML, like Gecko) Chrome/89.0.4389.82 Safari/537.36","Mozilla/5.0 (Windows NT 10.0; Win64; x64) AppleWebKit/537.36 (KHTML, like Gecko) Chrome/89.0.4389.82 Safari/537.36","Win32","en-US",3195.51499999943,"767","kjrfrljtrlg",5602.45000000214,"Yes",4052.93499999971,0.34375,121.194687500179,137.333181818163,399.514710743746
"mullerlyer",76.984999999695,"stimuli/MullerLyer_str-50.0_diff0.3.png","arrowdown","arrowup",95,479,FALSE,-50,0.3,3,10,0.4375,194.665624999971,335.726428571174,767.374693876969,"Yes","20210311_172844_tlja7","0.0.1","11/03/2021 17:28:44","20210311","172844",8,1536,722,"1536x722",1536,864,"1536x864",24,24,FALSE,"Netscape","Mozilla","Gecko","5.0 (Windows NT 10.0; Win64; x64) AppleWebKit/537.36 (KHTML, like Gecko) Chrome/89.0.4389.82 Safari/537.36","Mozilla/5.0 (Windows NT 10.0; Win64; x64) AppleWebKit/537.36 (KHTML, like Gecko) Chrome/89.0.4389.82 Safari/537.36","Win32","en-US",3195.51499999943,"767","kjrfrljtrlg",5602.45000000214,"Yes",4052.93499999971,0.34375,121.194687500179,137.333181818163,399.514710743746
"mullerlyer",84.0100000023085,"stimuli/MullerLyer_str50.0_diff-0.3.png","arrowdown","arrowdown",97,393,TRUE,50,-0.3,3,11,0.4375,194.665624999971,335.726428571174,767.374693876969,"Yes","20210311_172844_tlja7","0.0.1","11/03/2021 17:28:44","20210311","172844",8,1536,722,"1536x722",1536,864,"1536x864",24,24,FALSE,"Netscape","Mozilla","Gecko","5.0 (Windows NT 10.0; Win64; x64) AppleWebKit/537.36 (KHTML, like Gecko) Chrome/89.0.4389.82 Safari/537.36","Mozilla/5.0 (Windows NT 10.0; Win64; x64) AppleWebKit/537.36 (KHTML, like Gecko) Chrome/89.0.4389.82 Safari/537.36","Win32","en-US",3195.51499999943,"767","kjrfrljtrlg",5602.45000000214,"Yes",4052.93499999971,0.34375,121.194687500179,137.333181818163,399.514710743746
"mullerlyer",194.660000001022,"stimuli/MullerLyer_str-50.0_diff0.1.png","arrowdown","arrowup",99,290,FALSE,-50,0.1,3,12,0.4375,194.665624999971,335.726428571174,767.374693876969,"Yes","20210311_172844_tlja7","0.0.1","11/03/2021 17:28:44","20210311","172844",8,1536,722,"1536x722",1536,864,"1536x864",24,24,FALSE,"Netscape","Mozilla","Gecko","5.0 (Windows NT 10.0; Win64; x64) AppleWebKit/537.36 (KHTML, like Gecko) Chrome/89.0.4389.82 Safari/537.36","Mozilla/5.0 (Windows NT 10.0; Win64; x64) AppleWebKit/537.36 (KHTML, like Gecko) Chrome/89.0.4389.82 Safari/537.36","Win32","en-US",3195.51499999943,"767","kjrfrljtrlg",5602.45000000214,"Yes",4052.93499999971,0.34375,121.194687500179,137.333181818163,399.514710743746
"mullerlyer",201.120000001538,"stimuli/MullerLyer_str16.67_diff0.1.png","arrowdown","arrowup",101,292,FALSE,16.6666666666667,0.1,3,13,0.4375,194.665624999971,335.726428571174,767.374693876969,"Yes","20210311_172844_tlja7","0.0.1","11/03/2021 17:28:44","20210311","172844",8,1536,722,"1536x722",1536,864,"1536x864",24,24,FALSE,"Netscape","Mozilla","Gecko","5.0 (Windows NT 10.0; Win64; x64) AppleWebKit/537.36 (KHTML, like Gecko) Chrome/89.0.4389.82 Safari/537.36","Mozilla/5.0 (Windows NT 10.0; Win64; x64) AppleWebKit/537.36 (KHTML, like Gecko) Chrome/89.0.4389.82 Safari/537.36","Win32","en-US",3195.51499999943,"767","kjrfrljtrlg",5602.45000000214,"Yes",4052.93499999971,0.34375,121.194687500179,137.333181818163,399.514710743746
"mullerlyer",98.0249999993248,"stimuli/MullerLyer_str-50.0_diff-0.3.png","arrowdown","arrowdown",103,360,TRUE,-50,-0.3,3,14,0.4375,194.665624999971,335.726428571174,767.374693876969,"Yes","20210311_172844_tlja7","0.0.1","11/03/2021 17:28:44","20210311","172844",8,1536,722,"1536x722",1536,864,"1536x864",24,24,FALSE,"Netscape","Mozilla","Gecko","5.0 (Windows NT 10.0; Win64; x64) AppleWebKit/537.36 (KHTML, like Gecko) Chrome/89.0.4389.82 Safari/537.36","Mozilla/5.0 (Windows NT 10.0; Win64; x64) AppleWebKit/537.36 (KHTML, like Gecko) Chrome/89.0.4389.82 Safari/537.36","Win32","en-US",3195.51499999943,"767","kjrfrljtrlg",5602.45000000214,"Yes",4052.93499999971,0.34375,121.194687500179,137.333181818163,399.514710743746
"mullerlyer",43.2600000021921,"stimuli/MullerLyer_str16.67_diff-0.1.png","arrowup","arrowdown",105,481,FALSE,16.6666666666667,-0.1,3,15,0.4375,194.665624999971,335.726428571174,767.374693876969,"Yes","20210311_172844_tlja7","0.0.1","11/03/2021 17:28:44","20210311","172844",8,1536,722,"1536x722",1536,864,"1536x864",24,24,FALSE,"Netscape","Mozilla","Gecko","5.0 (Windows NT 10.0; Win64; x64) AppleWebKit/537.36 (KHTML, like Gecko) Chrome/89.0.4389.82 Safari/537.36","Mozilla/5.0 (Windows NT 10.0; Win64; x64) AppleWebKit/537.36 (KHTML, like Gecko) Chrome/89.0.4389.82 Safari/537.36","Win32","en-US",3195.51499999943,"767","kjrfrljtrlg",5602.45000000214,"Yes",4052.93499999971,0.34375,121.194687500179,137.333181818163,399.514710743746
"mullerlyer",16.3649999994959,"stimuli/MullerLyer_str-50.0_diff-0.1.png","arrowdown","arrowdown",107,383,TRUE,-50,-0.1,3,16,0.4375,194.665624999971,335.726428571174,767.374693876969,"Yes","20210311_172844_tlja7","0.0.1","11/03/2021 17:28:44","20210311","172844",8,1536,722,"1536x722",1536,864,"1536x864",24,24,FALSE,"Netscape","Mozilla","Gecko","5.0 (Windows NT 10.0; Win64; x64) AppleWebKit/537.36 (KHTML, like Gecko) Chrome/89.0.4389.82 Safari/537.36","Mozilla/5.0 (Windows NT 10.0; Win64; x64) AppleWebKit/537.36 (KHTML, like Gecko) Chrome/89.0.4389.82 Safari/537.36","Win32","en-US",3195.51499999943,"767","kjrfrljtrlg",5602.45000000214,"Yes",4052.93499999971,0.34375,121.194687500179,137.333181818163,399.514710743746
"ponzo",817.150000002584,"stimuli/Ponzo_str6.67_diff0.1.png","arrowdown","arrowup",112,2475,FALSE,6.66666666666667,0.1,4,1,0.3125,112.10750000032,34.4210000002931,110.147200000938,"Yes","20210311_172844_tlja7","0.0.1","11/03/2021 17:28:44","20210311","172844",8,1536,722,"1536x722",1536,864,"1536x864",24,24,FALSE,"Netscape","Mozilla","Gecko","5.0 (Windows NT 10.0; Win64; x64) AppleWebKit/537.36 (KHTML, like Gecko) Chrome/89.0.4389.82 Safari/537.36","Mozilla/5.0 (Windows NT 10.0; Win64; x64) AppleWebKit/537.36 (KHTML, like Gecko) Chrome/89.0.4389.82 Safari/537.36","Win32","en-US",3195.51499999943,"767","kjrfrljtrlg",5602.45000000214,"Yes",4052.93499999971,0.34375,121.194687500179,137.333181818163,399.514710743746
"ponzo",73.4850000008009,"stimuli/Ponzo_str-20.0_diff0.3.png","arrowdown","arrowup",114,391,FALSE,-20,0.3,4,2,0.3125,112.10750000032,34.4210000002931,110.147200000938,"Yes","20210311_172844_tlja7","0.0.1","11/03/2021 17:28:44","20210311","172844",8,1536,722,"1536x722",1536,864,"1536x864",24,24,FALSE,"Netscape","Mozilla","Gecko","5.0 (Windows NT 10.0; Win64; x64) AppleWebKit/537.36 (KHTML, like Gecko) Chrome/89.0.4389.82 Safari/537.36","Mozilla/5.0 (Windows NT 10.0; Win64; x64) AppleWebKit/537.36 (KHTML, like Gecko) Chrome/89.0.4389.82 Safari/537.36","Win32","en-US",3195.51499999943,"767","kjrfrljtrlg",5602.45000000214,"Yes",4052.93499999971,0.34375,121.194687500179,137.333181818163,399.514710743746
"ponzo",217.230000002019,"stimuli/Ponzo_str20.0_diff-0.3.png","arrowup","arrowdown",116,318,FALSE,20,-0.3,4,3,0.3125,112.10750000032,34.4210000002931,110.147200000938,"Yes","20210311_172844_tlja7","0.0.1","11/03/2021 17:28:44","20210311","172844",8,1536,722,"1536x722",1536,864,"1536x864",24,24,FALSE,"Netscape","Mozilla","Gecko","5.0 (Windows NT 10.0; Win64; x64) AppleWebKit/537.36 (KHTML, like Gecko) Chrome/89.0.4389.82 Safari/537.36","Mozilla/5.0 (Windows NT 10.0; Win64; x64) AppleWebKit/537.36 (KHTML, like Gecko) Chrome/89.0.4389.82 Safari/537.36","Win32","en-US",3195.51499999943,"767","kjrfrljtrlg",5602.45000000214,"Yes",4052.93499999971,0.34375,121.194687500179,137.333181818163,399.514710743746
"ponzo",16.0600000017439,"stimuli/Ponzo_str-20.0_diff-0.1.png","arrowup","arrowdown",118,468,FALSE,-20,-0.1,4,4,0.3125,112.10750000032,34.4210000002931,110.147200000938,"Yes","20210311_172844_tlja7","0.0.1","11/03/2021 17:28:44","20210311","172844",8,1536,722,"1536x722",1536,864,"1536x864",24,24,FALSE,"Netscape","Mozilla","Gecko","5.0 (Windows NT 10.0; Win64; x64) AppleWebKit/537.36 (KHTML, like Gecko) Chrome/89.0.4389.82 Safari/537.36","Mozilla/5.0 (Windows NT 10.0; Win64; x64) AppleWebKit/537.36 (KHTML, like Gecko) Chrome/89.0.4389.82 Safari/537.36","Win32","en-US",3195.51499999943,"767","kjrfrljtrlg",5602.45000000214,"Yes",4052.93499999971,0.34375,121.194687500179,137.333181818163,399.514710743746
"ponzo",68.6150000001362,"stimuli/Ponzo_str-6.67_diff0.1.png","arrowup","arrowup",120,378,TRUE,-6.66666666666667,0.1,4,5,0.3125,112.10750000032,34.4210000002931,110.147200000938,"Yes","20210311_172844_tlja7","0.0.1","11/03/2021 17:28:44","20210311","172844",8,1536,722,"1536x722",1536,864,"1536x864",24,24,FALSE,"Netscape","Mozilla","Gecko","5.0 (Windows NT 10.0; Win64; x64) AppleWebKit/537.36 (KHTML, like Gecko) Chrome/89.0.4389.82 Safari/537.36","Mozilla/5.0 (Windows NT 10.0; Win64; x64) AppleWebKit/537.36 (KHTML, like Gecko) Chrome/89.0.4389.82 Safari/537.36","Win32","en-US",3195.51499999943,"767","kjrfrljtrlg",5602.45000000214,"Yes",4052.93499999971,0.34375,121.194687500179,137.333181818163,399.514710743746
"ponzo",16.1499999994703,"stimuli/Ponzo_str-6.67_diff-0.3.png","arrowdown","arrowdown",122,302,TRUE,-6.66666666666667,-0.3,4,6,0.3125,112.10750000032,34.4210000002931,110.147200000938,"Yes","20210311_172844_tlja7","0.0.1","11/03/2021 17:28:44","20210311","172844",8,1536,722,"1536x722",1536,864,"1536x864",24,24,FALSE,"Netscape","Mozilla","Gecko","5.0 (Windows NT 10.0; Win64; x64) AppleWebKit/537.36 (KHTML, like Gecko) Chrome/89.0.4389.82 Safari/537.36","Mozilla/5.0 (Windows NT 10.0; Win64; x64) AppleWebKit/537.36 (KHTML, like Gecko) Chrome/89.0.4389.82 Safari/537.36","Win32","en-US",3195.51499999943,"767","kjrfrljtrlg",5602.45000000214,"Yes",4052.93499999971,0.34375,121.194687500179,137.333181818163,399.514710743746
"ponzo",43.2849999997416,"stimuli/Ponzo_str-6.67_diff-0.1.png","arrowdown","arrowdown",124,356,TRUE,-6.66666666666667,-0.1,4,7,0.3125,112.10750000032,34.4210000002931,110.147200000938,"Yes","20210311_172844_tlja7","0.0.1","11/03/2021 17:28:44","20210311","172844",8,1536,722,"1536x722",1536,864,"1536x864",24,24,FALSE,"Netscape","Mozilla","Gecko","5.0 (Windows NT 10.0; Win64; x64) AppleWebKit/537.36 (KHTML, like Gecko) Chrome/89.0.4389.82 Safari/537.36","Mozilla/5.0 (Windows NT 10.0; Win64; x64) AppleWebKit/537.36 (KHTML, like Gecko) Chrome/89.0.4389.82 Safari/537.36","Win32","en-US",3195.51499999943,"767","kjrfrljtrlg",5602.45000000214,"Yes",4052.93499999971,0.34375,121.194687500179,137.333181818163,399.514710743746
"ponzo",42.1099999985017,"stimuli/Ponzo_str-6.67_diff0.3.png","arrowdown","arrowup",126,368,FALSE,-6.66666666666667,0.3,4,8,0.3125,112.10750000032,34.4210000002931,110.147200000938,"Yes","20210311_172844_tlja7","0.0.1","11/03/2021 17:28:44","20210311","172844",8,1536,722,"1536x722",1536,864,"1536x864",24,24,FALSE,"Netscape","Mozilla","Gecko","5.0 (Windows NT 10.0; Win64; x64) AppleWebKit/537.36 (KHTML, like Gecko) Chrome/89.0.4389.82 Safari/537.36","Mozilla/5.0 (Windows NT 10.0; Win64; x64) AppleWebKit/537.36 (KHTML, like Gecko) Chrome/89.0.4389.82 Safari/537.36","Win32","en-US",3195.51499999943,"767","kjrfrljtrlg",5602.45000000214,"Yes",4052.93499999971,0.34375,121.194687500179,137.333181818163,399.514710743746
"ponzo",105.330000002141,"stimuli/Ponzo_str6.67_diff-0.1.png","arrowup","arrowdown",128,478,FALSE,6.66666666666667,-0.1,4,9,0.3125,112.10750000032,34.4210000002931,110.147200000938,"Yes","20210311_172844_tlja7","0.0.1","11/03/2021 17:28:44","20210311","172844",8,1536,722,"1536x722",1536,864,"1536x864",24,24,FALSE,"Netscape","Mozilla","Gecko","5.0 (Windows NT 10.0; Win64; x64) AppleWebKit/537.36 (KHTML, like Gecko) Chrome/89.0.4389.82 Safari/537.36","Mozilla/5.0 (Windows NT 10.0; Win64; x64) AppleWebKit/537.36 (KHTML, like Gecko) Chrome/89.0.4389.82 Safari/537.36","Win32","en-US",3195.51499999943,"767","kjrfrljtrlg",5602.45000000214,"Yes",4052.93499999971,0.34375,121.194687500179,137.333181818163,399.514710743746
"ponzo",35.5549999985669,"stimuli/Ponzo_str6.67_diff-0.3.png","arrowup","arrowdown",130,386,FALSE,6.66666666666667,-0.3,4,10,0.3125,112.10750000032,34.4210000002931,110.147200000938,"Yes","20210311_172844_tlja7","0.0.1","11/03/2021 17:28:44","20210311","172844",8,1536,722,"1536x722",1536,864,"1536x864",24,24,FALSE,"Netscape","Mozilla","Gecko","5.0 (Windows NT 10.0; Win64; x64) AppleWebKit/537.36 (KHTML, like Gecko) Chrome/89.0.4389.82 Safari/537.36","Mozilla/5.0 (Windows NT 10.0; Win64; x64) AppleWebKit/537.36 (KHTML, like Gecko) Chrome/89.0.4389.82 Safari/537.36","Win32","en-US",3195.51499999943,"767","kjrfrljtrlg",5602.45000000214,"Yes",4052.93499999971,0.34375,121.194687500179,137.333181818163,399.514710743746
"ponzo",68.859999999404,"stimuli/Ponzo_str20.0_diff0.1.png","arrowdown","arrowup",132,497,FALSE,20,0.1,4,11,0.3125,112.10750000032,34.4210000002931,110.147200000938,"Yes","20210311_172844_tlja7","0.0.1","11/03/2021 17:28:44","20210311","172844",8,1536,722,"1536x722",1536,864,"1536x864",24,24,FALSE,"Netscape","Mozilla","Gecko","5.0 (Windows NT 10.0; Win64; x64) AppleWebKit/537.36 (KHTML, like Gecko) Chrome/89.0.4389.82 Safari/537.36","Mozilla/5.0 (Windows NT 10.0; Win64; x64) AppleWebKit/537.36 (KHTML, like Gecko) Chrome/89.0.4389.82 Safari/537.36","Win32","en-US",3195.51499999943,"767","kjrfrljtrlg",5602.45000000214,"Yes",4052.93499999971,0.34375,121.194687500179,137.333181818163,399.514710743746
"ponzo",32.6249999998254,"stimuli/Ponzo_str20.0_diff0.3.png","arrowup","arrowup",134,370,TRUE,20,0.3,4,12,0.3125,112.10750000032,34.4210000002931,110.147200000938,"Yes","20210311_172844_tlja7","0.0.1","11/03/2021 17:28:44","20210311","172844",8,1536,722,"1536x722",1536,864,"1536x864",24,24,FALSE,"Netscape","Mozilla","Gecko","5.0 (Windows NT 10.0; Win64; x64) AppleWebKit/537.36 (KHTML, like Gecko) Chrome/89.0.4389.82 Safari/537.36","Mozilla/5.0 (Windows NT 10.0; Win64; x64) AppleWebKit/537.36 (KHTML, like Gecko) Chrome/89.0.4389.82 Safari/537.36","Win32","en-US",3195.51499999943,"767","kjrfrljtrlg",5602.45000000214,"Yes",4052.93499999971,0.34375,121.194687500179,137.333181818163,399.514710743746
"ponzo",55.000000000291,"stimuli/Ponzo_str6.67_diff0.3.png","arrowdown","arrowup",136,342,FALSE,6.66666666666667,0.3,4,13,0.3125,112.10750000032,34.4210000002931,110.147200000938,"Yes","20210311_172844_tlja7","0.0.1","11/03/2021 17:28:44","20210311","172844",8,1536,722,"1536x722",1536,864,"1536x864",24,24,FALSE,"Netscape","Mozilla","Gecko","5.0 (Windows NT 10.0; Win64; x64) AppleWebKit/537.36 (KHTML, like Gecko) Chrome/89.0.4389.82 Safari/537.36","Mozilla/5.0 (Windows NT 10.0; Win64; x64) AppleWebKit/537.36 (KHTML, like Gecko) Chrome/89.0.4389.82 Safari/537.36","Win32","en-US",3195.51499999943,"767","kjrfrljtrlg",5602.45000000214,"Yes",4052.93499999971,0.34375,121.194687500179,137.333181818163,399.514710743746
"ponzo",124.789999998029,"stimuli/Ponzo_str-20.0_diff0.1.png","arrowdown","arrowup",138,329,FALSE,-20,0.1,4,14,0.3125,112.10750000032,34.4210000002931,110.147200000938,"Yes","20210311_172844_tlja7","0.0.1","11/03/2021 17:28:44","20210311","172844",8,1536,722,"1536x722",1536,864,"1536x864",24,24,FALSE,"Netscape","Mozilla","Gecko","5.0 (Windows NT 10.0; Win64; x64) AppleWebKit/537.36 (KHTML, like Gecko) Chrome/89.0.4389.82 Safari/537.36","Mozilla/5.0 (Windows NT 10.0; Win64; x64) AppleWebKit/537.36 (KHTML, like Gecko) Chrome/89.0.4389.82 Safari/537.36","Win32","en-US",3195.51499999943,"767","kjrfrljtrlg",5602.45000000214,"Yes",4052.93499999971,0.34375,121.194687500179,137.333181818163,399.514710743746
"ponzo",66.0449999995762,"stimuli/Ponzo_str20.0_diff-0.1.png","arrowup","arrowdown",140,312,FALSE,20,-0.1,4,15,0.3125,112.10750000032,34.4210000002931,110.147200000938,"Yes","20210311_172844_tlja7","0.0.1","11/03/2021 17:28:44","20210311","172844",8,1536,722,"1536x722",1536,864,"1536x864",24,24,FALSE,"Netscape","Mozilla","Gecko","5.0 (Windows NT 10.0; Win64; x64) AppleWebKit/537.36 (KHTML, like Gecko) Chrome/89.0.4389.82 Safari/537.36","Mozilla/5.0 (Windows NT 10.0; Win64; x64) AppleWebKit/537.36 (KHTML, like Gecko) Chrome/89.0.4389.82 Safari/537.36","Win32","en-US",3195.51499999943,"767","kjrfrljtrlg",5602.45000000214,"Yes",4052.93499999971,0.34375,121.194687500179,137.333181818163,399.514710743746
"ponzo",11.4300000022922,"stimuli/Ponzo_str-20.0_diff-0.3.png","arrowdown","arrowdown",142,387,TRUE,-20,-0.3,4,16,0.3125,112.10750000032,34.4210000002931,110.147200000938,"Yes","20210311_172844_tlja7","0.0.1","11/03/2021 17:28:44","20210311","172844",8,1536,722,"1536x722",1536,864,"1536x864",24,24,FALSE,"Netscape","Mozilla","Gecko","5.0 (Windows NT 10.0; Win64; x64) AppleWebKit/537.36 (KHTML, like Gecko) Chrome/89.0.4389.82 Safari/537.36","Mozilla/5.0 (Windows NT 10.0; Win64; x64) AppleWebKit/537.36 (KHTML, like Gecko) Chrome/89.0.4389.82 Safari/537.36","Win32","en-US",3195.51499999943,"767","kjrfrljtrlg",5602.45000000214,"Yes",4052.93499999971,0.34375,121.194687500179,137.333181818163,399.514710743746
"delboeuf",565.380000000005,"stimuli/Delboeuf_str-1.0_diff-0.33.png","arrowright","arrowright",8,2453,TRUE,-1,-0.333333333333333,1,1,0.6875,604.050312499339,621.13454545397,903.468429751229,"Yes","20210311_173827_r7pc0","0.0.1","11/03/2021 17:38:27","20210311","173827",8,1536,722,"1536x722",1536,864,"1536x864",24,24,FALSE,"Netscape","Mozilla","Gecko","5.0 (Windows NT 10.0; Win64; x64) AppleWebKit/537.36 (KHTML, like Gecko) Chrome/89.0.4389.82 Safari/537.36","Mozilla/5.0 (Windows NT 10.0; Win64; x64) AppleWebKit/537.36 (KHTML, like Gecko) Chrome/89.0.4389.82 Safari/537.36","Win32","en-US",784.66500000286,"","",732.175000001007,"No",4960.05999999761,0.71875,617.041718749817,640.942065217172,891.745482041282
"delboeuf",614.969999998721,"stimuli/Delboeuf_str-0.33_diff-1.0.png","arrowright","arrowright",10,324,TRUE,-0.333333333333333,-1,1,2,0.6875,604.050312499339,621.13454545397,903.468429751229,"Yes","20210311_173827_r7pc0","0.0.1","11/03/2021 17:38:27","20210311","173827",8,1536,722,"1536x722",1536,864,"1536x864",24,24,FALSE,"Netscape","Mozilla","Gecko","5.0 (Windows NT 10.0; Win64; x64) AppleWebKit/537.36 (KHTML, like Gecko) Chrome/89.0.4389.82 Safari/537.36","Mozilla/5.0 (Windows NT 10.0; Win64; x64) AppleWebKit/537.36 (KHTML, like Gecko) Chrome/89.0.4389.82 Safari/537.36","Win32","en-US",784.66500000286,"","",732.175000001007,"No",4960.05999999761,0.71875,617.041718749817,640.942065217172,891.745482041282
"delboeuf",894.714999998541,"stimuli/Delboeuf_str1.0_diff0.33.png","arrowleft","arrowleft",12,296,TRUE,1,0.333333333333333,1,3,0.6875,604.050312499339,621.13454545397,903.468429751229,"Yes","20210311_173827_r7pc0","0.0.1","11/03/2021 17:38:27","20210311","173827",8,1536,722,"1536x722",1536,864,"1536x864",24,24,FALSE,"Netscape","Mozilla","Gecko","5.0 (Windows NT 10.0; Win64; x64) AppleWebKit/537.36 (KHTML, like Gecko) Chrome/89.0.4389.82 Safari/537.36","Mozilla/5.0 (Windows NT 10.0; Win64; x64) AppleWebKit/537.36 (KHTML, like Gecko) Chrome/89.0.4389.82 Safari/537.36","Win32","en-US",784.66500000286,"","",732.175000001007,"No",4960.05999999761,0.71875,617.041718749817,640.942065217172,891.745482041282
"delboeuf",545.324999999139,"stimuli/Delboeuf_str0.33_diff1.0.png","arrowleft","arrowleft",14,405,TRUE,0.333333333333333,1,1,4,0.6875,604.050312499339,621.13454545397,903.468429751229,"Yes","20210311_173827_r7pc0","0.0.1","11/03/2021 17:38:27","20210311","173827",8,1536,722,"1536x722",1536,864,"1536x864",24,24,FALSE,"Netscape","Mozilla","Gecko","5.0 (Windows NT 10.0; Win64; x64) AppleWebKit/537.36 (KHTML, like Gecko) Chrome/89.0.4389.82 Safari/537.36","Mozilla/5.0 (Windows NT 10.0; Win64; x64) AppleWebKit/537.36 (KHTML, like Gecko) Chrome/89.0.4389.82 Safari/537.36","Win32","en-US",784.66500000286,"","",732.175000001007,"No",4960.05999999761,0.71875,617.041718749817,640.942065217172,891.745482041282
"delboeuf",621.359999997367,"stimuli/Delboeuf_str1.0_diff-1.0.png","arrowright","arrowright",16,437,TRUE,1,-1,1,5,0.6875,604.050312499339,621.13454545397,903.468429751229,"Yes","20210311_173827_r7pc0","0.0.1","11/03/2021 17:38:27","20210311","173827",8,1536,722,"1536x722",1536,864,"1536x864",24,24,FALSE,"Netscape","Mozilla","Gecko","5.0 (Windows NT 10.0; Win64; x64) AppleWebKit/537.36 (KHTML, like Gecko) Chrome/89.0.4389.82 Safari/537.36","Mozilla/5.0 (Windows NT 10.0; Win64; x64) AppleWebKit/537.36 (KHTML, like Gecko) Chrome/89.0.4389.82 Safari/537.36","Win32","en-US",784.66500000286,"","",732.175000001007,"No",4960.05999999761,0.71875,617.041718749817,640.942065217172,891.745482041282
"delboeuf",709.019999998418,"stimuli/Delboeuf_str-0.33_diff1.0.png","arrowleft","arrowleft",18,300,TRUE,-0.333333333333333,1,1,6,0.6875,604.050312499339,621.13454545397,903.468429751229,"Yes","20210311_173827_r7pc0","0.0.1","11/03/2021 17:38:27","20210311","173827",8,1536,722,"1536x722",1536,864,"1536x864",24,24,FALSE,"Netscape","Mozilla","Gecko","5.0 (Windows NT 10.0; Win64; x64) AppleWebKit/537.36 (KHTML, like Gecko) Chrome/89.0.4389.82 Safari/537.36","Mozilla/5.0 (Windows NT 10.0; Win64; x64) AppleWebKit/537.36 (KHTML, like Gecko) Chrome/89.0.4389.82 Safari/537.36","Win32","en-US",784.66500000286,"","",732.175000001007,"No",4960.05999999761,0.71875,617.041718749817,640.942065217172,891.745482041282
"delboeuf",596.809999999095,"stimuli/Delboeuf_str-1.0_diff0.33.png","arrowleft","arrowleft",20,404,TRUE,-1,0.333333333333333,1,7,0.6875,604.050312499339,621.13454545397,903.468429751229,"Yes","20210311_173827_r7pc0","0.0.1","11/03/2021 17:38:27","20210311","173827",8,1536,722,"1536x722",1536,864,"1536x864",24,24,FALSE,"Netscape","Mozilla","Gecko","5.0 (Windows NT 10.0; Win64; x64) AppleWebKit/537.36 (KHTML, like Gecko) Chrome/89.0.4389.82 Safari/537.36","Mozilla/5.0 (Windows NT 10.0; Win64; x64) AppleWebKit/537.36 (KHTML, like Gecko) Chrome/89.0.4389.82 Safari/537.36","Win32","en-US",784.66500000286,"","",732.175000001007,"No",4960.05999999761,0.71875,617.041718749817,640.942065217172,891.745482041282
"delboeuf",567.960000000312,"stimuli/Delboeuf_str0.33_diff0.33.png","arrowleft","arrowleft",22,357,TRUE,0.333333333333333,0.333333333333333,1,8,0.6875,604.050312499339,621.13454545397,903.468429751229,"Yes","20210311_173827_r7pc0","0.0.1","11/03/2021 17:38:27","20210311","173827",8,1536,722,"1536x722",1536,864,"1536x864",24,24,FALSE,"Netscape","Mozilla","Gecko","5.0 (Windows NT 10.0; Win64; x64) AppleWebKit/537.36 (KHTML, like Gecko) Chrome/89.0.4389.82 Safari/537.36","Mozilla/5.0 (Windows NT 10.0; Win64; x64) AppleWebKit/537.36 (KHTML, like Gecko) Chrome/89.0.4389.82 Safari/537.36","Win32","en-US",784.66500000286,"","",732.175000001007,"No",4960.05999999761,0.71875,617.041718749817,640.942065217172,891.745482041282
"delboeuf",634.584999999788,"stimuli/Delboeuf_str1.0_diff-0.33.png","arrowleft","arrowright",24,484,FALSE,1,-0.333333333333333,1,9,0.6875,604.050312499339,621.13454545397,903.468429751229,"Yes","20210311_173827_r7pc0","0.0.1","11/03/2021 17:38:27","20210311","173827",8,1536,722,"1536x722",1536,864,"1536x864",24,24,FALSE,"Netscape","Mozilla","Gecko","5.0 (Windows NT 10.0; Win64; x64) AppleWebKit/537.36 (KHTML, like Gecko) Chrome/89.0.4389.82 Safari/537.36","Mozilla/5.0 (Windows NT 10.0; Win64; x64) AppleWebKit/537.36 (KHTML, like Gecko) Chrome/89.0.4389.82 Safari/537.36","Win32","en-US",784.66500000286,"","",732.175000001007,"No",4960.05999999761,0.71875,617.041718749817,640.942065217172,891.745482041282
"delboeuf",583.910000001197,"stimuli/Delboeuf_str-1.0_diff1.0.png","arrowleft","arrowleft",26,375,TRUE,-1,1,1,10,0.6875,604.050312499339,621.13454545397,903.468429751229,"Yes","20210311_173827_r7pc0","0.0.1","11/03/2021 17:38:27","20210311","173827",8,1536,722,"1536x722",1536,864,"1536x864",24,24,FALSE,"Netscape","Mozilla","Gecko","5.0 (Windows NT 10.0; Win64; x64) AppleWebKit/537.36 (KHTML, like Gecko) Chrome/89.0.4389.82 Safari/537.36","Mozilla/5.0 (Windows NT 10.0; Win64; x64) AppleWebKit/537.36 (KHTML, like Gecko) Chrome/89.0.4389.82 Safari/537.36","Win32","en-US",784.66500000286,"","",732.175000001007,"No",4960.05999999761,0.71875,617.041718749817,640.942065217172,891.745482041282
"delboeuf",653.874999999971,"stimuli/Delboeuf_str-1.0_diff-1.0.png","arrowleft","arrowright",28,318,FALSE,-1,-1,1,11,0.6875,604.050312499339,621.13454545397,903.468429751229,"Yes","20210311_173827_r7pc0","0.0.1","11/03/2021 17:38:27","20210311","173827",8,1536,722,"1536x722",1536,864,"1536x864",24,24,FALSE,"Netscape","Mozilla","Gecko","5.0 (Windows NT 10.0; Win64; x64) AppleWebKit/537.36 (KHTML, like Gecko) Chrome/89.0.4389.82 Safari/537.36","Mozilla/5.0 (Windows NT 10.0; Win64; x64) AppleWebKit/537.36 (KHTML, like Gecko) Chrome/89.0.4389.82 Safari/537.36","Win32","en-US",784.66500000286,"","",732.175000001007,"No",4960.05999999761,0.71875,617.041718749817,640.942065217172,891.745482041282
"delboeuf",527.55999999863,"stimuli/Delboeuf_str0.33_diff-0.33.png","arrowleft","arrowright",30,325,FALSE,0.333333333333333,-0.333333333333333,1,12,0.6875,604.050312499339,621.13454545397,903.468429751229,"Yes","20210311_173827_r7pc0","0.0.1","11/03/2021 17:38:27","20210311","173827",8,1536,722,"1536x722",1536,864,"1536x864",24,24,FALSE,"Netscape","Mozilla","Gecko","5.0 (Windows NT 10.0; Win64; x64) AppleWebKit/537.36 (KHTML, like Gecko) Chrome/89.0.4389.82 Safari/537.36","Mozilla/5.0 (Windows NT 10.0; Win64; x64) AppleWebKit/537.36 (KHTML, like Gecko) Chrome/89.0.4389.82 Safari/537.36","Win32","en-US",784.66500000286,"","",732.175000001007,"No",4960.05999999761,0.71875,617.041718749817,640.942065217172,891.745482041282
"delboeuf",526.555000000371,"stimuli/Delboeuf_str-0.33_diff0.33.png","arrowleft","arrowleft",32,322,TRUE,-0.333333333333333,0.333333333333333,1,13,0.6875,604.050312499339,621.13454545397,903.468429751229,"Yes","20210311_173827_r7pc0","0.0.1","11/03/2021 17:38:27","20210311","173827",8,1536,722,"1536x722",1536,864,"1536x864",24,24,FALSE,"Netscape","Mozilla","Gecko","5.0 (Windows NT 10.0; Win64; x64) AppleWebKit/537.36 (KHTML, like Gecko) Chrome/89.0.4389.82 Safari/537.36","Mozilla/5.0 (Windows NT 10.0; Win64; x64) AppleWebKit/537.36 (KHTML, like Gecko) Chrome/89.0.4389.82 Safari/537.36","Win32","en-US",784.66500000286,"","",732.175000001007,"No",4960.05999999761,0.71875,617.041718749817,640.942065217172,891.745482041282
"delboeuf",606.475000000501,"stimuli/Delboeuf_str1.0_diff1.0.png","arrowleft","arrowleft",34,382,TRUE,1,1,1,14,0.6875,604.050312499339,621.13454545397,903.468429751229,"Yes","20210311_173827_r7pc0","0.0.1","11/03/2021 17:38:27","20210311","173827",8,1536,722,"1536x722",1536,864,"1536x864",24,24,FALSE,"Netscape","Mozilla","Gecko","5.0 (Windows NT 10.0; Win64; x64) AppleWebKit/537.36 (KHTML, like Gecko) Chrome/89.0.4389.82 Safari/537.36","Mozilla/5.0 (Windows NT 10.0; Win64; x64) AppleWebKit/537.36 (KHTML, like Gecko) Chrome/89.0.4389.82 Safari/537.36","Win32","en-US",784.66500000286,"","",732.175000001007,"No",4960.05999999761,0.71875,617.041718749817,640.942065217172,891.745482041282
"delboeuf",527.5049999982,"stimuli/Delboeuf_str0.33_diff-1.0.png","arrowleft","arrowright",36,333,FALSE,0.333333333333333,-1,1,15,0.6875,604.050312499339,621.13454545397,903.468429751229,"Yes","20210311_173827_r7pc0","0.0.1","11/03/2021 17:38:27","20210311","173827",8,1536,722,"1536x722",1536,864,"1536x864",24,24,FALSE,"Netscape","Mozilla","Gecko","5.0 (Windows NT 10.0; Win64; x64) AppleWebKit/537.36 (KHTML, like Gecko) Chrome/89.0.4389.82 Safari/537.36","Mozilla/5.0 (Windows NT 10.0; Win64; x64) AppleWebKit/537.36 (KHTML, like Gecko) Chrome/89.0.4389.82 Safari/537.36","Win32","en-US",784.66500000286,"","",732.175000001007,"No",4960.05999999761,0.71875,617.041718749817,640.942065217172,891.745482041282
"delboeuf",488.799999999173,"stimuli/Delboeuf_str-0.33_diff-0.33.png","arrowleft","arrowright",38,427,FALSE,-0.333333333333333,-0.333333333333333,1,16,0.6875,604.050312499339,621.13454545397,903.468429751229,"Yes","20210311_173827_r7pc0","0.0.1","11/03/2021 17:38:27","20210311","173827",8,1536,722,"1536x722",1536,864,"1536x864",24,24,FALSE,"Netscape","Mozilla","Gecko","5.0 (Windows NT 10.0; Win64; x64) AppleWebKit/537.36 (KHTML, like Gecko) Chrome/89.0.4389.82 Safari/537.36","Mozilla/5.0 (Windows NT 10.0; Win64; x64) AppleWebKit/537.36 (KHTML, like Gecko) Chrome/89.0.4389.82 Safari/537.36","Win32","en-US",784.66500000286,"","",732.175000001007,"No",4960.05999999761,0.71875,617.041718749817,640.942065217172,891.745482041282
"ebbinghaus",709.124999997584,"stimuli/Ebbinghaus_str-0.33_diff-0.33.png","arrowright","arrowright",43,2329,TRUE,-0.333333333333333,-0.333333333333333,2,1,0.9375,652.410937499781,662.060666666366,706.198044444124,"Yes","20210311_173827_r7pc0","0.0.1","11/03/2021 17:38:27","20210311","173827",8,1536,722,"1536x722",1536,864,"1536x864",24,24,FALSE,"Netscape","Mozilla","Gecko","5.0 (Windows NT 10.0; Win64; x64) AppleWebKit/537.36 (KHTML, like Gecko) Chrome/89.0.4389.82 Safari/537.36","Mozilla/5.0 (Windows NT 10.0; Win64; x64) AppleWebKit/537.36 (KHTML, like Gecko) Chrome/89.0.4389.82 Safari/537.36","Win32","en-US",784.66500000286,"","",732.175000001007,"No",4960.05999999761,0.71875,617.041718749817,640.942065217172,891.745482041282
"ebbinghaus",706.425000000309,"stimuli/Ebbinghaus_str0.33_diff-0.33.png","arrowright","arrowright",45,332,TRUE,0.333333333333333,-0.333333333333333,2,2,0.9375,652.410937499781,662.060666666366,706.198044444124,"Yes","20210311_173827_r7pc0","0.0.1","11/03/2021 17:38:27","20210311","173827",8,1536,722,"1536x722",1536,864,"1536x864",24,24,FALSE,"Netscape","Mozilla","Gecko","5.0 (Windows NT 10.0; Win64; x64) AppleWebKit/537.36 (KHTML, like Gecko) Chrome/89.0.4389.82 Safari/537.36","Mozilla/5.0 (Windows NT 10.0; Win64; x64) AppleWebKit/537.36 (KHTML, like Gecko) Chrome/89.0.4389.82 Safari/537.36","Win32","en-US",784.66500000286,"","",732.175000001007,"No",4960.05999999761,0.71875,617.041718749817,640.942065217172,891.745482041282
"ebbinghaus",571.850000000268,"stimuli/Ebbinghaus_str1.0_diff-0.33.png","arrowright","arrowright",47,416,TRUE,1,-0.333333333333333,2,3,0.9375,652.410937499781,662.060666666366,706.198044444124,"Yes","20210311_173827_r7pc0","0.0.1","11/03/2021 17:38:27","20210311","173827",8,1536,722,"1536x722",1536,864,"1536x864",24,24,FALSE,"Netscape","Mozilla","Gecko","5.0 (Windows NT 10.0; Win64; x64) AppleWebKit/537.36 (KHTML, like Gecko) Chrome/89.0.4389.82 Safari/537.36","Mozilla/5.0 (Windows NT 10.0; Win64; x64) AppleWebKit/537.36 (KHTML, like Gecko) Chrome/89.0.4389.82 Safari/537.36","Win32","en-US",784.66500000286,"","",732.175000001007,"No",4960.05999999761,0.71875,617.041718749817,640.942065217172,891.745482041282
"ebbinghaus",627.51500000013,"stimuli/Ebbinghaus_str-1.0_diff-1.0.png","arrowright","arrowright",49,311,TRUE,-1,-1,2,4,0.9375,652.410937499781,662.060666666366,706.198044444124,"Yes","20210311_173827_r7pc0","0.0.1","11/03/2021 17:38:27","20210311","173827",8,1536,722,"1536x722",1536,864,"1536x864",24,24,FALSE,"Netscape","Mozilla","Gecko","5.0 (Windows NT 10.0; Win64; x64) AppleWebKit/537.36 (KHTML, like Gecko) Chrome/89.0.4389.82 Safari/537.36","Mozilla/5.0 (Windows NT 10.0; Win64; x64) AppleWebKit/537.36 (KHTML, like Gecko) Chrome/89.0.4389.82 Safari/537.36","Win32","en-US",784.66500000286,"","",732.175000001007,"No",4960.05999999761,0.71875,617.041718749817,640.942065217172,891.745482041282
"ebbinghaus",688.469999997324,"stimuli/Ebbinghaus_str-0.33_diff0.33.png","arrowleft","arrowleft",51,337,TRUE,-0.333333333333333,0.333333333333333,2,5,0.9375,652.410937499781,662.060666666366,706.198044444124,"Yes","20210311_173827_r7pc0","0.0.1","11/03/2021 17:38:27","20210311","173827",8,1536,722,"1536x722",1536,864,"1536x864",24,24,FALSE,"Netscape","Mozilla","Gecko","5.0 (Windows NT 10.0; Win64; x64) AppleWebKit/537.36 (KHTML, like Gecko) Chrome/89.0.4389.82 Safari/537.36","Mozilla/5.0 (Windows NT 10.0; Win64; x64) AppleWebKit/537.36 (KHTML, like Gecko) Chrome/89.0.4389.82 Safari/537.36","Win32","en-US",784.66500000286,"","",732.175000001007,"No",4960.05999999761,0.71875,617.041718749817,640.942065217172,891.745482041282
"ebbinghaus",587.540000000445,"stimuli/Ebbinghaus_str0.33_diff0.33.png","arrowleft","arrowleft",53,449,TRUE,0.333333333333333,0.333333333333333,2,6,0.9375,652.410937499781,662.060666666366,706.198044444124,"Yes","20210311_173827_r7pc0","0.0.1","11/03/2021 17:38:27","20210311","173827",8,1536,722,"1536x722",1536,864,"1536x864",24,24,FALSE,"Netscape","Mozilla","Gecko","5.0 (Windows NT 10.0; Win64; x64) AppleWebKit/537.36 (KHTML, like Gecko) Chrome/89.0.4389.82 Safari/537.36","Mozilla/5.0 (Windows NT 10.0; Win64; x64) AppleWebKit/537.36 (KHTML, like Gecko) Chrome/89.0.4389.82 Safari/537.36","Win32","en-US",784.66500000286,"","",732.175000001007,"No",4960.05999999761,0.71875,617.041718749817,640.942065217172,891.745482041282
"ebbinghaus",686.779999999999,"stimuli/Ebbinghaus_str-1.0_diff0.33.png","arrowleft","arrowleft",55,308,TRUE,-1,0.333333333333333,2,7,0.9375,652.410937499781,662.060666666366,706.198044444124,"Yes","20210311_173827_r7pc0","0.0.1","11/03/2021 17:38:27","20210311","173827",8,1536,722,"1536x722",1536,864,"1536x864",24,24,FALSE,"Netscape","Mozilla","Gecko","5.0 (Windows NT 10.0; Win64; x64) AppleWebKit/537.36 (KHTML, like Gecko) Chrome/89.0.4389.82 Safari/537.36","Mozilla/5.0 (Windows NT 10.0; Win64; x64) AppleWebKit/537.36 (KHTML, like Gecko) Chrome/89.0.4389.82 Safari/537.36","Win32","en-US",784.66500000286,"","",732.175000001007,"No",4960.05999999761,0.71875,617.041718749817,640.942065217172,891.745482041282
"ebbinghaus",539.334999997664,"stimuli/Ebbinghaus_str0.33_diff1.0.png","arrowleft","arrowleft",57,371,TRUE,0.333333333333333,1,2,8,0.9375,652.410937499781,662.060666666366,706.198044444124,"Yes","20210311_173827_r7pc0","0.0.1","11/03/2021 17:38:27","20210311","173827",8,1536,722,"1536x722",1536,864,"1536x864",24,24,FALSE,"Netscape","Mozilla","Gecko","5.0 (Windows NT 10.0; Win64; x64) AppleWebKit/537.36 (KHTML, like Gecko) Chrome/89.0.4389.82 Safari/537.36","Mozilla/5.0 (Windows NT 10.0; Win64; x64) AppleWebKit/537.36 (KHTML, like Gecko) Chrome/89.0.4389.82 Safari/537.36","Win32","en-US",784.66500000286,"","",732.175000001007,"No",4960.05999999761,0.71875,617.041718749817,640.942065217172,891.745482041282
"ebbinghaus",752.929999998742,"stimuli/Ebbinghaus_str-0.33_diff-1.0.png","arrowright","arrowright",59,410,TRUE,-0.333333333333333,-1,2,9,0.9375,652.410937499781,662.060666666366,706.198044444124,"Yes","20210311_173827_r7pc0","0.0.1","11/03/2021 17:38:27","20210311","173827",8,1536,722,"1536x722",1536,864,"1536x864",24,24,FALSE,"Netscape","Mozilla","Gecko","5.0 (Windows NT 10.0; Win64; x64) AppleWebKit/537.36 (KHTML, like Gecko) Chrome/89.0.4389.82 Safari/537.36","Mozilla/5.0 (Windows NT 10.0; Win64; x64) AppleWebKit/537.36 (KHTML, like Gecko) Chrome/89.0.4389.82 Safari/537.36","Win32","en-US",784.66500000286,"","",732.175000001007,"No",4960.05999999761,0.71875,617.041718749817,640.942065217172,891.745482041282
"ebbinghaus",620.720000002621,"stimuli/Ebbinghaus_str1.0_diff-1.0.png","arrowright","arrowright",61,382,TRUE,1,-1,2,10,0.9375,652.410937499781,662.060666666366,706.198044444124,"Yes","20210311_173827_r7pc0","0.0.1","11/03/2021 17:38:27","20210311","173827",8,1536,722,"1536x722",1536,864,"1536x864",24,24,FALSE,"Netscape","Mozilla","Gecko","5.0 (Windows NT 10.0; Win64; x64) AppleWebKit/537.36 (KHTML, like Gecko) Chrome/89.0.4389.82 Safari/537.36","Mozilla/5.0 (Windows NT 10.0; Win64; x64) AppleWebKit/537.36 (KHTML, like Gecko) Chrome/89.0.4389.82 Safari/537.36","Win32","en-US",784.66500000286,"","",732.175000001007,"No",4960.05999999761,0.71875,617.041718749817,640.942065217172,891.745482041282
"ebbinghaus",744.750000001659,"stimuli/Ebbinghaus_str-1.0_diff-0.33.png","arrowright","arrowright",63,383,TRUE,-1,-0.333333333333333,2,11,0.9375,652.410937499781,662.060666666366,706.198044444124,"Yes","20210311_173827_r7pc0","0.0.1","11/03/2021 17:38:27","20210311","173827",8,1536,722,"1536x722",1536,864,"1536x864",24,24,FALSE,"Netscape","Mozilla","Gecko","5.0 (Windows NT 10.0; Win64; x64) AppleWebKit/537.36 (KHTML, like Gecko) Chrome/89.0.4389.82 Safari/537.36","Mozilla/5.0 (Windows NT 10.0; Win64; x64) AppleWebKit/537.36 (KHTML, like Gecko) Chrome/89.0.4389.82 Safari/537.36","Win32","en-US",784.66500000286,"","",732.175000001007,"No",4960.05999999761,0.71875,617.041718749817,640.942065217172,891.745482041282
"ebbinghaus",669.454999999289,"stimuli/Ebbinghaus_str1.0_diff1.0.png","arrowleft","arrowleft",65,353,TRUE,1,1,2,12,0.9375,652.410937499781,662.060666666366,706.198044444124,"Yes","20210311_173827_r7pc0","0.0.1","11/03/2021 17:38:27","20210311","173827",8,1536,722,"1536x722",1536,864,"1536x864",24,24,FALSE,"Netscape","Mozilla","Gecko","5.0 (Windows NT 10.0; Win64; x64) AppleWebKit/537.36 (KHTML, like Gecko) Chrome/89.0.4389.82 Safari/537.36","Mozilla/5.0 (Windows NT 10.0; Win64; x64) AppleWebKit/537.36 (KHTML, like Gecko) Chrome/89.0.4389.82 Safari/537.36","Win32","en-US",784.66500000286,"","",732.175000001007,"No",4960.05999999761,0.71875,617.041718749817,640.942065217172,891.745482041282
"ebbinghaus",683.945000000676,"stimuli/Ebbinghaus_str-0.33_diff1.0.png","arrowleft","arrowleft",67,431,TRUE,-0.333333333333333,1,2,13,0.9375,652.410937499781,662.060666666366,706.198044444124,"Yes","20210311_173827_r7pc0","0.0.1","11/03/2021 17:38:27","20210311","173827",8,1536,722,"1536x722",1536,864,"1536x864",24,24,FALSE,"Netscape","Mozilla","Gecko","5.0 (Windows NT 10.0; Win64; x64) AppleWebKit/537.36 (KHTML, like Gecko) Chrome/89.0.4389.82 Safari/537.36","Mozilla/5.0 (Windows NT 10.0; Win64; x64) AppleWebKit/537.36 (KHTML, like Gecko) Chrome/89.0.4389.82 Safari/537.36","Win32","en-US",784.66500000286,"","",732.175000001007,"No",4960.05999999761,0.71875,617.041718749817,640.942065217172,891.745482041282
"ebbinghaus",742.794999998296,"stimuli/Ebbinghaus_str1.0_diff0.33.png","arrowleft","arrowleft",69,271,TRUE,1,0.333333333333333,2,14,0.9375,652.410937499781,662.060666666366,706.198044444124,"Yes","20210311_173827_r7pc0","0.0.1","11/03/2021 17:38:27","20210311","173827",8,1536,722,"1536x722",1536,864,"1536x864",24,24,FALSE,"Netscape","Mozilla","Gecko","5.0 (Windows NT 10.0; Win64; x64) AppleWebKit/537.36 (KHTML, like Gecko) Chrome/89.0.4389.82 Safari/537.36","Mozilla/5.0 (Windows NT 10.0; Win64; x64) AppleWebKit/537.36 (KHTML, like Gecko) Chrome/89.0.4389.82 Safari/537.36","Win32","en-US",784.66500000286,"","",732.175000001007,"No",4960.05999999761,0.71875,617.041718749817,640.942065217172,891.745482041282
"ebbinghaus",507.665000000998,"stimuli/Ebbinghaus_str0.33_diff-1.0.png","arrowleft","arrowright",71,407,FALSE,0.333333333333333,-1,2,15,0.9375,652.410937499781,662.060666666366,706.198044444124,"Yes","20210311_173827_r7pc0","0.0.1","11/03/2021 17:38:27","20210311","173827",8,1536,722,"1536x722",1536,864,"1536x864",24,24,FALSE,"Netscape","Mozilla","Gecko","5.0 (Windows NT 10.0; Win64; x64) AppleWebKit/537.36 (KHTML, like Gecko) Chrome/89.0.4389.82 Safari/537.36","Mozilla/5.0 (Windows NT 10.0; Win64; x64) AppleWebKit/537.36 (KHTML, like Gecko) Chrome/89.0.4389.82 Safari/537.36","Win32","en-US",784.66500000286,"","",732.175000001007,"No",4960.05999999761,0.71875,617.041718749817,640.942065217172,891.745482041282
"ebbinghaus",599.275000000489,"stimuli/Ebbinghaus_str-1.0_diff1.0.png","arrowleft","arrowleft",73,318,TRUE,-1,1,2,16,0.9375,652.410937499781,662.060666666366,706.198044444124,"Yes","20210311_173827_r7pc0","0.0.1","11/03/2021 17:38:27","20210311","173827",8,1536,722,"1536x722",1536,864,"1536x864",24,24,FALSE,"Netscape","Mozilla","Gecko","5.0 (Windows NT 10.0; Win64; x64) AppleWebKit/537.36 (KHTML, like Gecko) Chrome/89.0.4389.82 Safari/537.36","Mozilla/5.0 (Windows NT 10.0; Win64; x64) AppleWebKit/537.36 (KHTML, like Gecko) Chrome/89.0.4389.82 Safari/537.36","Win32","en-US",784.66500000286,"","",732.175000001007,"No",4960.05999999761,0.71875,617.041718749817,640.942065217172,891.745482041282
"mullerlyer",722.690000002331,"stimuli/MullerLyer_str-50.0_diff0.1.png","arrowdown","arrowup",78,2443,FALSE,-50,0.1,3,1,0.6875,646.981249999726,663.492727272321,965.080330577921,"Yes","20210311_173827_r7pc0","0.0.1","11/03/2021 17:38:27","20210311","173827",8,1536,722,"1536x722",1536,864,"1536x864",24,24,FALSE,"Netscape","Mozilla","Gecko","5.0 (Windows NT 10.0; Win64; x64) AppleWebKit/537.36 (KHTML, like Gecko) Chrome/89.0.4389.82 Safari/537.36","Mozilla/5.0 (Windows NT 10.0; Win64; x64) AppleWebKit/537.36 (KHTML, like Gecko) Chrome/89.0.4389.82 Safari/537.36","Win32","en-US",784.66500000286,"","",732.175000001007,"No",4960.05999999761,0.71875,617.041718749817,640.942065217172,891.745482041282
"mullerlyer",650.714999999764,"stimuli/MullerLyer_str50.0_diff0.3.png","arrowup","arrowup",80,395,TRUE,50,0.3,3,2,0.6875,646.981249999726,663.492727272321,965.080330577921,"Yes","20210311_173827_r7pc0","0.0.1","11/03/2021 17:38:27","20210311","173827",8,1536,722,"1536x722",1536,864,"1536x864",24,24,FALSE,"Netscape","Mozilla","Gecko","5.0 (Windows NT 10.0; Win64; x64) AppleWebKit/537.36 (KHTML, like Gecko) Chrome/89.0.4389.82 Safari/537.36","Mozilla/5.0 (Windows NT 10.0; Win64; x64) AppleWebKit/537.36 (KHTML, like Gecko) Chrome/89.0.4389.82 Safari/537.36","Win32","en-US",784.66500000286,"","",732.175000001007,"No",4960.05999999761,0.71875,617.041718749817,640.942065217172,891.745482041282
"mullerlyer",689.70999999874,"stimuli/MullerLyer_str-16.67_diff-0.3.png","arrowdown","arrowdown",82,294,TRUE,-16.6666666666667,-0.3,3,3,0.6875,646.981249999726,663.492727272321,965.080330577921,"Yes","20210311_173827_r7pc0","0.0.1","11/03/2021 17:38:27","20210311","173827",8,1536,722,"1536x722",1536,864,"1536x864",24,24,FALSE,"Netscape","Mozilla","Gecko","5.0 (Windows NT 10.0; Win64; x64) AppleWebKit/537.36 (KHTML, like Gecko) Chrome/89.0.4389.82 Safari/537.36","Mozilla/5.0 (Windows NT 10.0; Win64; x64) AppleWebKit/537.36 (KHTML, like Gecko) Chrome/89.0.4389.82 Safari/537.36","Win32","en-US",784.66500000286,"","",732.175000001007,"No",4960.05999999761,0.71875,617.041718749817,640.942065217172,891.745482041282
"mullerlyer",561.405000000377,"stimuli/MullerLyer_str-16.67_diff0.1.png","arrowup","arrowup",84,478,TRUE,-16.6666666666667,0.1,3,4,0.6875,646.981249999726,663.492727272321,965.080330577921,"Yes","20210311_173827_r7pc0","0.0.1","11/03/2021 17:38:27","20210311","173827",8,1536,722,"1536x722",1536,864,"1536x864",24,24,FALSE,"Netscape","Mozilla","Gecko","5.0 (Windows NT 10.0; Win64; x64) AppleWebKit/537.36 (KHTML, like Gecko) Chrome/89.0.4389.82 Safari/537.36","Mozilla/5.0 (Windows NT 10.0; Win64; x64) AppleWebKit/537.36 (KHTML, like Gecko) Chrome/89.0.4389.82 Safari/537.36","Win32","en-US",784.66500000286,"","",732.175000001007,"No",4960.05999999761,0.71875,617.041718749817,640.942065217172,891.745482041282
"mullerlyer",653.859999998531,"stimuli/MullerLyer_str-50.0_diff-0.1.png","arrowup","arrowdown",86,265,FALSE,-50,-0.1,3,5,0.6875,646.981249999726,663.492727272321,965.080330577921,"Yes","20210311_173827_r7pc0","0.0.1","11/03/2021 17:38:27","20210311","173827",8,1536,722,"1536x722",1536,864,"1536x864",24,24,FALSE,"Netscape","Mozilla","Gecko","5.0 (Windows NT 10.0; Win64; x64) AppleWebKit/537.36 (KHTML, like Gecko) Chrome/89.0.4389.82 Safari/537.36","Mozilla/5.0 (Windows NT 10.0; Win64; x64) AppleWebKit/537.36 (KHTML, like Gecko) Chrome/89.0.4389.82 Safari/537.36","Win32","en-US",784.66500000286,"","",732.175000001007,"No",4960.05999999761,0.71875,617.041718749817,640.942065217172,891.745482041282
"mullerlyer",604.269999999815,"stimuli/MullerLyer_str16.67_diff-0.3.png","arrowdown","arrowdown",88,471,TRUE,16.6666666666667,-0.3,3,6,0.6875,646.981249999726,663.492727272321,965.080330577921,"Yes","20210311_173827_r7pc0","0.0.1","11/03/2021 17:38:27","20210311","173827",8,1536,722,"1536x722",1536,864,"1536x864",24,24,FALSE,"Netscape","Mozilla","Gecko","5.0 (Windows NT 10.0; Win64; x64) AppleWebKit/537.36 (KHTML, like Gecko) Chrome/89.0.4389.82 Safari/537.36","Mozilla/5.0 (Windows NT 10.0; Win64; x64) AppleWebKit/537.36 (KHTML, like Gecko) Chrome/89.0.4389.82 Safari/537.36","Win32","en-US",784.66500000286,"","",732.175000001007,"No",4960.05999999761,0.71875,617.041718749817,640.942065217172,891.745482041282
"mullerlyer",578.600000000733,"stimuli/MullerLyer_str-16.67_diff-0.1.png","arrowup","arrowdown",90,348,FALSE,-16.6666666666667,-0.1,3,7,0.6875,646.981249999726,663.492727272321,965.080330577921,"Yes","20210311_173827_r7pc0","0.0.1","11/03/2021 17:38:27","20210311","173827",8,1536,722,"1536x722",1536,864,"1536x864",24,24,FALSE,"Netscape","Mozilla","Gecko","5.0 (Windows NT 10.0; Win64; x64) AppleWebKit/537.36 (KHTML, like Gecko) Chrome/89.0.4389.82 Safari/537.36","Mozilla/5.0 (Windows NT 10.0; Win64; x64) AppleWebKit/537.36 (KHTML, like Gecko) Chrome/89.0.4389.82 Safari/537.36","Win32","en-US",784.66500000286,"","",732.175000001007,"No",4960.05999999761,0.71875,617.041718749817,640.942065217172,891.745482041282
"mullerlyer",546.184999999241,"stimuli/MullerLyer_str50.0_diff-0.1.png","arrowdown","arrowdown",92,294,TRUE,50,-0.1,3,8,0.6875,646.981249999726,663.492727272321,965.080330577921,"Yes","20210311_173827_r7pc0","0.0.1","11/03/2021 17:38:27","20210311","173827",8,1536,722,"1536x722",1536,864,"1536x864",24,24,FALSE,"Netscape","Mozilla","Gecko","5.0 (Windows NT 10.0; Win64; x64) AppleWebKit/537.36 (KHTML, like Gecko) Chrome/89.0.4389.82 Safari/537.36","Mozilla/5.0 (Windows NT 10.0; Win64; x64) AppleWebKit/537.36 (KHTML, like Gecko) Chrome/89.0.4389.82 Safari/537.36","Win32","en-US",784.66500000286,"","",732.175000001007,"No",4960.05999999761,0.71875,617.041718749817,640.942065217172,891.745482041282
"mullerlyer",529.25999999934,"stimuli/MullerLyer_str-50.0_diff0.3.png","arrowup","arrowup",94,455,TRUE,-50,0.3,3,9,0.6875,646.981249999726,663.492727272321,965.080330577921,"Yes","20210311_173827_r7pc0","0.0.1","11/03/2021 17:38:27","20210311","173827",8,1536,722,"1536x722",1536,864,"1536x864",24,24,FALSE,"Netscape","Mozilla","Gecko","5.0 (Windows NT 10.0; Win64; x64) AppleWebKit/537.36 (KHTML, like Gecko) Chrome/89.0.4389.82 Safari/537.36","Mozilla/5.0 (Windows NT 10.0; Win64; x64) AppleWebKit/537.36 (KHTML, like Gecko) Chrome/89.0.4389.82 Safari/537.36","Win32","en-US",784.66500000286,"","",732.175000001007,"No",4960.05999999761,0.71875,617.041718749817,640.942065217172,891.745482041282
"mullerlyer",702.490000003309,"stimuli/MullerLyer_str50.0_diff-0.3.png","arrowdown","arrowdown",96,460,TRUE,50,-0.3,3,10,0.6875,646.981249999726,663.492727272321,965.080330577921,"Yes","20210311_173827_r7pc0","0.0.1","11/03/2021 17:38:27","20210311","173827",8,1536,722,"1536x722",1536,864,"1536x864",24,24,FALSE,"Netscape","Mozilla","Gecko","5.0 (Windows NT 10.0; Win64; x64) AppleWebKit/537.36 (KHTML, like Gecko) Chrome/89.0.4389.82 Safari/537.36","Mozilla/5.0 (Windows NT 10.0; Win64; x64) AppleWebKit/537.36 (KHTML, like Gecko) Chrome/89.0.4389.82 Safari/537.36","Win32","en-US",784.66500000286,"","",732.175000001007,"No",4960.05999999761,0.71875,617.041718749817,640.942065217172,891.745482041282
"mullerlyer",847.794999997859,"stimuli/MullerLyer_str16.67_diff0.3.png","arrowup","arrowup",98,327,TRUE,16.6666666666667,0.3,3,11,0.6875,646.981249999726,663.492727272321,965.080330577921,"Yes","20210311_173827_r7pc0","0.0.1","11/03/2021 17:38:27","20210311","173827",8,1536,722,"1536x722",1536,864,"1536x864",24,24,FALSE,"Netscape","Mozilla","Gecko","5.0 (Windows NT 10.0; Win64; x64) AppleWebKit/537.36 (KHTML, like Gecko) Chrome/89.0.4389.82 Safari/537.36","Mozilla/5.0 (Windows NT 10.0; Win64; x64) AppleWebKit/537.36 (KHTML, like Gecko) Chrome/89.0.4389.82 Safari/537.36","Win32","en-US",784.66500000286,"","",732.175000001007,"No",4960.05999999761,0.71875,617.041718749817,640.942065217172,891.745482041282
"mullerlyer",727.964999998221,"stimuli/MullerLyer_str-16.67_diff0.3.png","arrowup","arrowup",100,290,TRUE,-16.6666666666667,0.3,3,12,0.6875,646.981249999726,663.492727272321,965.080330577921,"Yes","20210311_173827_r7pc0","0.0.1","11/03/2021 17:38:27","20210311","173827",8,1536,722,"1536x722",1536,864,"1536x864",24,24,FALSE,"Netscape","Mozilla","Gecko","5.0 (Windows NT 10.0; Win64; x64) AppleWebKit/537.36 (KHTML, like Gecko) Chrome/89.0.4389.82 Safari/537.36","Mozilla/5.0 (Windows NT 10.0; Win64; x64) AppleWebKit/537.36 (KHTML, like Gecko) Chrome/89.0.4389.82 Safari/537.36","Win32","en-US",784.66500000286,"","",732.175000001007,"No",4960.05999999761,0.71875,617.041718749817,640.942065217172,891.745482041282
"mullerlyer",816.514999998617,"stimuli/MullerLyer_str-50.0_diff-0.3.png","arrowup","arrowdown",102,346,FALSE,-50,-0.3,3,13,0.6875,646.981249999726,663.492727272321,965.080330577921,"Yes","20210311_173827_r7pc0","0.0.1","11/03/2021 17:38:27","20210311","173827",8,1536,722,"1536x722",1536,864,"1536x864",24,24,FALSE,"Netscape","Mozilla","Gecko","5.0 (Windows NT 10.0; Win64; x64) AppleWebKit/537.36 (KHTML, like Gecko) Chrome/89.0.4389.82 Safari/537.36","Mozilla/5.0 (Windows NT 10.0; Win64; x64) AppleWebKit/537.36 (KHTML, like Gecko) Chrome/89.0.4389.82 Safari/537.36","Win32","en-US",784.66500000286,"","",732.175000001007,"No",4960.05999999761,0.71875,617.041718749817,640.942065217172,891.745482041282
"mullerlyer",632.209999999759,"stimuli/MullerLyer_str16.67_diff0.1.png","arrowup","arrowup",104,301,TRUE,16.6666666666667,0.1,3,14,0.6875,646.981249999726,663.492727272321,965.080330577921,"Yes","20210311_173827_r7pc0","0.0.1","11/03/2021 17:38:27","20210311","173827",8,1536,722,"1536x722",1536,864,"1536x864",24,24,FALSE,"Netscape","Mozilla","Gecko","5.0 (Windows NT 10.0; Win64; x64) AppleWebKit/537.36 (KHTML, like Gecko) Chrome/89.0.4389.82 Safari/537.36","Mozilla/5.0 (Windows NT 10.0; Win64; x64) AppleWebKit/537.36 (KHTML, like Gecko) Chrome/89.0.4389.82 Safari/537.36","Win32","en-US",784.66500000286,"","",732.175000001007,"No",4960.05999999761,0.71875,617.041718749817,640.942065217172,891.745482041282
"mullerlyer",281.614999999874,"stimuli/MullerLyer_str16.67_diff-0.1.png","arrowup","arrowdown",106,460,FALSE,16.6666666666667,-0.1,3,15,0.6875,646.981249999726,663.492727272321,965.080330577921,"Yes","20210311_173827_r7pc0","0.0.1","11/03/2021 17:38:27","20210311","173827",8,1536,722,"1536x722",1536,864,"1536x864",24,24,FALSE,"Netscape","Mozilla","Gecko","5.0 (Windows NT 10.0; Win64; x64) AppleWebKit/537.36 (KHTML, like Gecko) Chrome/89.0.4389.82 Safari/537.36","Mozilla/5.0 (Windows NT 10.0; Win64; x64) AppleWebKit/537.36 (KHTML, like Gecko) Chrome/89.0.4389.82 Safari/537.36","Win32","en-US",784.66500000286,"","",732.175000001007,"No",4960.05999999761,0.71875,617.041718749817,640.942065217172,891.745482041282
"mullerlyer",806.414999999106,"stimuli/MullerLyer_str50.0_diff0.1.png","arrowup","arrowup",108,282,TRUE,50,0.1,3,16,0.6875,646.981249999726,663.492727272321,965.080330577921,"Yes","20210311_173827_r7pc0","0.0.1","11/03/2021 17:38:27","20210311","173827",8,1536,722,"1536x722",1536,864,"1536x864",24,24,FALSE,"Netscape","Mozilla","Gecko","5.0 (Windows NT 10.0; Win64; x64) AppleWebKit/537.36 (KHTML, like Gecko) Chrome/89.0.4389.82 Safari/537.36","Mozilla/5.0 (Windows NT 10.0; Win64; x64) AppleWebKit/537.36 (KHTML, like Gecko) Chrome/89.0.4389.82 Safari/537.36","Win32","en-US",784.66500000286,"","",732.175000001007,"No",4960.05999999761,0.71875,617.041718749817,640.942065217172,891.745482041282
"ponzo",739.000000001397,"stimuli/Ponzo_str-20.0_diff0.3.png","arrowup","arrowup",113,2407,TRUE,-20,0.3,4,1,0.5625,564.724375000424,602.391666667245,1070.91851851955,"Yes","20210311_173827_r7pc0","0.0.1","11/03/2021 17:38:27","20210311","173827",8,1536,722,"1536x722",1536,864,"1536x864",24,24,FALSE,"Netscape","Mozilla","Gecko","5.0 (Windows NT 10.0; Win64; x64) AppleWebKit/537.36 (KHTML, like Gecko) Chrome/89.0.4389.82 Safari/537.36","Mozilla/5.0 (Windows NT 10.0; Win64; x64) AppleWebKit/537.36 (KHTML, like Gecko) Chrome/89.0.4389.82 Safari/537.36","Win32","en-US",784.66500000286,"","",732.175000001007,"No",4960.05999999761,0.71875,617.041718749817,640.942065217172,891.745482041282
"ponzo",580.345000002126,"stimuli/Ponzo_str6.67_diff-0.1.png","arrowup","arrowdown",115,471,FALSE,6.66666666666667,-0.1,4,2,0.5625,564.724375000424,602.391666667245,1070.91851851955,"Yes","20210311_173827_r7pc0","0.0.1","11/03/2021 17:38:27","20210311","173827",8,1536,722,"1536x722",1536,864,"1536x864",24,24,FALSE,"Netscape","Mozilla","Gecko","5.0 (Windows NT 10.0; Win64; x64) AppleWebKit/537.36 (KHTML, like Gecko) Chrome/89.0.4389.82 Safari/537.36","Mozilla/5.0 (Windows NT 10.0; Win64; x64) AppleWebKit/537.36 (KHTML, like Gecko) Chrome/89.0.4389.82 Safari/537.36","Win32","en-US",784.66500000286,"","",732.175000001007,"No",4960.05999999761,0.71875,617.041718749817,640.942065217172,891.745482041282
"ponzo",609.459999999672,"stimuli/Ponzo_str20.0_diff-0.1.png","arrowdown","arrowdown",117,389,TRUE,20,-0.1,4,3,0.5625,564.724375000424,602.391666667245,1070.91851851955,"Yes","20210311_173827_r7pc0","0.0.1","11/03/2021 17:38:27","20210311","173827",8,1536,722,"1536x722",1536,864,"1536x864",24,24,FALSE,"Netscape","Mozilla","Gecko","5.0 (Windows NT 10.0; Win64; x64) AppleWebKit/537.36 (KHTML, like Gecko) Chrome/89.0.4389.82 Safari/537.36","Mozilla/5.0 (Windows NT 10.0; Win64; x64) AppleWebKit/537.36 (KHTML, like Gecko) Chrome/89.0.4389.82 Safari/537.36","Win32","en-US",784.66500000286,"","",732.175000001007,"No",4960.05999999761,0.71875,617.041718749817,640.942065217172,891.745482041282
"ponzo",609.68000000139,"stimuli/Ponzo_str-20.0_diff-0.1.png","arrowdown","arrowdown",119,406,TRUE,-20,-0.1,4,4,0.5625,564.724375000424,602.391666667245,1070.91851851955,"Yes","20210311_173827_r7pc0","0.0.1","11/03/2021 17:38:27","20210311","173827",8,1536,722,"1536x722",1536,864,"1536x864",24,24,FALSE,"Netscape","Mozilla","Gecko","5.0 (Windows NT 10.0; Win64; x64) AppleWebKit/537.36 (KHTML, like Gecko) Chrome/89.0.4389.82 Safari/537.36","Mozilla/5.0 (Windows NT 10.0; Win64; x64) AppleWebKit/537.36 (KHTML, like Gecko) Chrome/89.0.4389.82 Safari/537.36","Win32","en-US",784.66500000286,"","",732.175000001007,"No",4960.05999999761,0.71875,617.041718749817,640.942065217172,891.745482041282
"ponzo",747.064999999566,"stimuli/Ponzo_str20.0_diff0.1.png","arrowdown","arrowup",121,311,FALSE,20,0.1,4,5,0.5625,564.724375000424,602.391666667245,1070.91851851955,"Yes","20210311_173827_r7pc0","0.0.1","11/03/2021 17:38:27","20210311","173827",8,1536,722,"1536x722",1536,864,"1536x864",24,24,FALSE,"Netscape","Mozilla","Gecko","5.0 (Windows NT 10.0; Win64; x64) AppleWebKit/537.36 (KHTML, like Gecko) Chrome/89.0.4389.82 Safari/537.36","Mozilla/5.0 (Windows NT 10.0; Win64; x64) AppleWebKit/537.36 (KHTML, like Gecko) Chrome/89.0.4389.82 Safari/537.36","Win32","en-US",784.66500000286,"","",732.175000001007,"No",4960.05999999761,0.71875,617.041718749817,640.942065217172,891.745482041282
"ponzo",870.585000000574,"stimuli/Ponzo_str-20.0_diff0.1.png","arrowup","arrowup",123,406,TRUE,-20,0.1,4,6,0.5625,564.724375000424,602.391666667245,1070.91851851955,"Yes","20210311_173827_r7pc0","0.0.1","11/03/2021 17:38:27","20210311","173827",8,1536,722,"1536x722",1536,864,"1536x864",24,24,FALSE,"Netscape","Mozilla","Gecko","5.0 (Windows NT 10.0; Win64; x64) AppleWebKit/537.36 (KHTML, like Gecko) Chrome/89.0.4389.82 Safari/537.36","Mozilla/5.0 (Windows NT 10.0; Win64; x64) AppleWebKit/537.36 (KHTML, like Gecko) Chrome/89.0.4389.82 Safari/537.36","Win32","en-US",784.66500000286,"","",732.175000001007,"No",4960.05999999761,0.71875,617.041718749817,640.942065217172,891.745482041282
"ponzo",607.035000000906,"stimuli/Ponzo_str-6.67_diff-0.3.png","arrowup","arrowdown",125,391,FALSE,-6.66666666666667,-0.3,4,7,0.5625,564.724375000424,602.391666667245,1070.91851851955,"Yes","20210311_173827_r7pc0","0.0.1","11/03/2021 17:38:27","20210311","173827",8,1536,722,"1536x722",1536,864,"1536x864",24,24,FALSE,"Netscape","Mozilla","Gecko","5.0 (Windows NT 10.0; Win64; x64) AppleWebKit/537.36 (KHTML, like Gecko) Chrome/89.0.4389.82 Safari/537.36","Mozilla/5.0 (Windows NT 10.0; Win64; x64) AppleWebKit/537.36 (KHTML, like Gecko) Chrome/89.0.4389.82 Safari/537.36","Win32","en-US",784.66500000286,"","",732.175000001007,"No",4960.05999999761,0.71875,617.041718749817,640.942065217172,891.745482041282
"ponzo",752.744999997958,"stimuli/Ponzo_str6.67_diff0.1.png","arrowup","arrowup",127,470,TRUE,6.66666666666667,0.1,4,8,0.5625,564.724375000424,602.391666667245,1070.91851851955,"Yes","20210311_173827_r7pc0","0.0.1","11/03/2021 17:38:27","20210311","173827",8,1536,722,"1536x722",1536,864,"1536x864",24,24,FALSE,"Netscape","Mozilla","Gecko","5.0 (Windows NT 10.0; Win64; x64) AppleWebKit/537.36 (KHTML, like Gecko) Chrome/89.0.4389.82 Safari/537.36","Mozilla/5.0 (Windows NT 10.0; Win64; x64) AppleWebKit/537.36 (KHTML, like Gecko) Chrome/89.0.4389.82 Safari/537.36","Win32","en-US",784.66500000286,"","",732.175000001007,"No",4960.05999999761,0.71875,617.041718749817,640.942065217172,891.745482041282
"ponzo",761.070000000473,"stimuli/Ponzo_str-6.67_diff0.1.png","arrowup","arrowup",129,469,TRUE,-6.66666666666667,0.1,4,9,0.5625,564.724375000424,602.391666667245,1070.91851851955,"Yes","20210311_173827_r7pc0","0.0.1","11/03/2021 17:38:27","20210311","173827",8,1536,722,"1536x722",1536,864,"1536x864",24,24,FALSE,"Netscape","Mozilla","Gecko","5.0 (Windows NT 10.0; Win64; x64) AppleWebKit/537.36 (KHTML, like Gecko) Chrome/89.0.4389.82 Safari/537.36","Mozilla/5.0 (Windows NT 10.0; Win64; x64) AppleWebKit/537.36 (KHTML, like Gecko) Chrome/89.0.4389.82 Safari/537.36","Win32","en-US",784.66500000286,"","",732.175000001007,"No",4960.05999999761,0.71875,617.041718749817,640.942065217172,891.745482041282
"ponzo",636.484999999084,"stimuli/Ponzo_str-6.67_diff-0.1.png","arrowup","arrowdown",131,313,FALSE,-6.66666666666667,-0.1,4,10,0.5625,564.724375000424,602.391666667245,1070.91851851955,"Yes","20210311_173827_r7pc0","0.0.1","11/03/2021 17:38:27","20210311","173827",8,1536,722,"1536x722",1536,864,"1536x864",24,24,FALSE,"Netscape","Mozilla","Gecko","5.0 (Windows NT 10.0; Win64; x64) AppleWebKit/537.36 (KHTML, like Gecko) Chrome/89.0.4389.82 Safari/537.36","Mozilla/5.0 (Windows NT 10.0; Win64; x64) AppleWebKit/537.36 (KHTML, like Gecko) Chrome/89.0.4389.82 Safari/537.36","Win32","en-US",784.66500000286,"","",732.175000001007,"No",4960.05999999761,0.71875,617.041718749817,640.942065217172,891.745482041282
"ponzo",448.615000001155,"stimuli/Ponzo_str20.0_diff0.3.png","arrowup","arrowup",133,340,TRUE,20,0.3,4,11,0.5625,564.724375000424,602.391666667245,1070.91851851955,"Yes","20210311_173827_r7pc0","0.0.1","11/03/2021 17:38:27","20210311","173827",8,1536,722,"1536x722",1536,864,"1536x864",24,24,FALSE,"Netscape","Mozilla","Gecko","5.0 (Windows NT 10.0; Win64; x64) AppleWebKit/537.36 (KHTML, like Gecko) Chrome/89.0.4389.82 Safari/537.36","Mozilla/5.0 (Windows NT 10.0; Win64; x64) AppleWebKit/537.36 (KHTML, like Gecko) Chrome/89.0.4389.82 Safari/537.36","Win32","en-US",784.66500000286,"","",732.175000001007,"No",4960.05999999761,0.71875,617.041718749817,640.942065217172,891.745482041282
"ponzo",388.225000002421,"stimuli/Ponzo_str-6.67_diff0.3.png","arrowup","arrowup",135,279,TRUE,-6.66666666666667,0.3,4,12,0.5625,564.724375000424,602.391666667245,1070.91851851955,"Yes","20210311_173827_r7pc0","0.0.1","11/03/2021 17:38:27","20210311","173827",8,1536,722,"1536x722",1536,864,"1536x864",24,24,FALSE,"Netscape","Mozilla","Gecko","5.0 (Windows NT 10.0; Win64; x64) AppleWebKit/537.36 (KHTML, like Gecko) Chrome/89.0.4389.82 Safari/537.36","Mozilla/5.0 (Windows NT 10.0; Win64; x64) AppleWebKit/537.36 (KHTML, like Gecko) Chrome/89.0.4389.82 Safari/537.36","Win32","en-US",784.66500000286,"","",732.175000001007,"No",4960.05999999761,0.71875,617.041718749817,640.942065217172,891.745482041282
"ponzo",242.145000000164,"stimuli/Ponzo_str6.67_diff0.3.png","arrowup","arrowup",137,331,TRUE,6.66666666666667,0.3,4,13,0.5625,564.724375000424,602.391666667245,1070.91851851955,"Yes","20210311_173827_r7pc0","0.0.1","11/03/2021 17:38:27","20210311","173827",8,1536,722,"1536x722",1536,864,"1536x864",24,24,FALSE,"Netscape","Mozilla","Gecko","5.0 (Windows NT 10.0; Win64; x64) AppleWebKit/537.36 (KHTML, like Gecko) Chrome/89.0.4389.82 Safari/537.36","Mozilla/5.0 (Windows NT 10.0; Win64; x64) AppleWebKit/537.36 (KHTML, like Gecko) Chrome/89.0.4389.82 Safari/537.36","Win32","en-US",784.66500000286,"","",732.175000001007,"No",4960.05999999761,0.71875,617.041718749817,640.942065217172,891.745482041282
"ponzo",424.295000000711,"stimuli/Ponzo_str-20.0_diff-0.3.png","arrowup","arrowdown",139,469,FALSE,-20,-0.3,4,14,0.5625,564.724375000424,602.391666667245,1070.91851851955,"Yes","20210311_173827_r7pc0","0.0.1","11/03/2021 17:38:27","20210311","173827",8,1536,722,"1536x722",1536,864,"1536x864",24,24,FALSE,"Netscape","Mozilla","Gecko","5.0 (Windows NT 10.0; Win64; x64) AppleWebKit/537.36 (KHTML, like Gecko) Chrome/89.0.4389.82 Safari/537.36","Mozilla/5.0 (Windows NT 10.0; Win64; x64) AppleWebKit/537.36 (KHTML, like Gecko) Chrome/89.0.4389.82 Safari/537.36","Win32","en-US",784.66500000286,"","",732.175000001007,"No",4960.05999999761,0.71875,617.041718749817,640.942065217172,891.745482041282
"ponzo",215.254999999161,"stimuli/Ponzo_str20.0_diff-0.3.png","arrowup","arrowdown",141,457,FALSE,20,-0.3,4,15,0.5625,564.724375000424,602.391666667245,1070.91851851955,"Yes","20210311_173827_r7pc0","0.0.1","11/03/2021 17:38:27","20210311","173827",8,1536,722,"1536x722",1536,864,"1536x864",24,24,FALSE,"Netscape","Mozilla","Gecko","5.0 (Windows NT 10.0; Win64; x64) AppleWebKit/537.36 (KHTML, like Gecko) Chrome/89.0.4389.82 Safari/537.36","Mozilla/5.0 (Windows NT 10.0; Win64; x64) AppleWebKit/537.36 (KHTML, like Gecko) Chrome/89.0.4389.82 Safari/537.36","Win32","en-US",784.66500000286,"","",732.175000001007,"No",4960.05999999761,0.71875,617.041718749817,640.942065217172,891.745482041282
"ponzo",403.585000000021,"stimuli/Ponzo_str6.67_diff-0.3.png","arrowup","arrowdown",143,269,FALSE,6.66666666666667,-0.3,4,16,0.5625,564.724375000424,602.391666667245,1070.91851851955,"Yes","20210311_173827_r7pc0","0.0.1","11/03/2021 17:38:27","20210311","173827",8,1536,722,"1536x722",1536,864,"1536x864",24,24,FALSE,"Netscape","Mozilla","Gecko","5.0 (Windows NT 10.0; Win64; x64) AppleWebKit/537.36 (KHTML, like Gecko) Chrome/89.0.4389.82 Safari/537.36","Mozilla/5.0 (Windows NT 10.0; Win64; x64) AppleWebKit/537.36 (KHTML, like Gecko) Chrome/89.0.4389.82 Safari/537.36","Win32","en-US",784.66500000286,"","",732.175000001007,"No",4960.05999999761,0.71875,617.041718749817,640.942065217172,891.745482041282
"delboeuf",754.349999988335,"stimuli/Delboeuf_str1.0_diff-0.33.png","arrowright","arrowright",7,2280,TRUE,1,-0.333333333333333,1,1,0.6875,760.954062498968,787.824545452498,1145.92661156727,"Yes","20210312_135907_gg4ka","0.0.1","12/03/2021 13:59:07","20210312","135907",8,1920,937,"1920x937",1920,1080,"1920x1080",24,24,FALSE,"Netscape","Mozilla","Gecko","5.0 (Windows NT 10.0; Win64; x64) AppleWebKit/537.36 (KHTML, like Gecko) Chrome/89.0.4389.82 Safari/537.36","Mozilla/5.0 (Windows NT 10.0; Win64; x64) AppleWebKit/537.36 (KHTML, like Gecko) Chrome/89.0.4389.82 Safari/537.36","Win32","en-US",517.695000002277,"20121999","TS",10174.5999999985,"Yes",2142.25499999884,0.75,763.81374999869,777.275624998159,1036.36749999755
"delboeuf",735.379999998258,"stimuli/Delboeuf_str1.0_diff0.33.png","arrowleft","arrowleft",9,432,TRUE,1,0.333333333333333,1,2,0.6875,760.954062498968,787.824545452498,1145.92661156727,"Yes","20210312_135907_gg4ka","0.0.1","12/03/2021 13:59:07","20210312","135907",8,1920,937,"1920x937",1920,1080,"1920x1080",24,24,FALSE,"Netscape","Mozilla","Gecko","5.0 (Windows NT 10.0; Win64; x64) AppleWebKit/537.36 (KHTML, like Gecko) Chrome/89.0.4389.82 Safari/537.36","Mozilla/5.0 (Windows NT 10.0; Win64; x64) AppleWebKit/537.36 (KHTML, like Gecko) Chrome/89.0.4389.82 Safari/537.36","Win32","en-US",517.695000002277,"20121999","TS",10174.5999999985,"Yes",2142.25499999884,0.75,763.81374999869,777.275624998159,1036.36749999755
"delboeuf",745.240000003832,"stimuli/Delboeuf_str-0.33_diff-0.33.png","arrowleft","arrowright",11,397,FALSE,-0.333333333333333,-0.333333333333333,1,3,0.6875,760.954062498968,787.824545452498,1145.92661156727,"Yes","20210312_135907_gg4ka","0.0.1","12/03/2021 13:59:07","20210312","135907",8,1920,937,"1920x937",1920,1080,"1920x1080",24,24,FALSE,"Netscape","Mozilla","Gecko","5.0 (Windows NT 10.0; Win64; x64) AppleWebKit/537.36 (KHTML, like Gecko) Chrome/89.0.4389.82 Safari/537.36","Mozilla/5.0 (Windows NT 10.0; Win64; x64) AppleWebKit/537.36 (KHTML, like Gecko) Chrome/89.0.4389.82 Safari/537.36","Win32","en-US",517.695000002277,"20121999","TS",10174.5999999985,"Yes",2142.25499999884,0.75,763.81374999869,777.275624998159,1036.36749999755
"delboeuf",818.18000000203,"stimuli/Delboeuf_str1.0_diff-1.0.png","arrowright","arrowright",13,278,TRUE,1,-1,1,4,0.6875,760.954062498968,787.824545452498,1145.92661156727,"Yes","20210312_135907_gg4ka","0.0.1","12/03/2021 13:59:07","20210312","135907",8,1920,937,"1920x937",1920,1080,"1920x1080",24,24,FALSE,"Netscape","Mozilla","Gecko","5.0 (Windows NT 10.0; Win64; x64) AppleWebKit/537.36 (KHTML, like Gecko) Chrome/89.0.4389.82 Safari/537.36","Mozilla/5.0 (Windows NT 10.0; Win64; x64) AppleWebKit/537.36 (KHTML, like Gecko) Chrome/89.0.4389.82 Safari/537.36","Win32","en-US",517.695000002277,"20121999","TS",10174.5999999985,"Yes",2142.25499999884,0.75,763.81374999869,777.275624998159,1036.36749999755
"delboeuf",734.974999999395,"stimuli/Delboeuf_str-1.0_diff1.0.png","arrowleft","arrowleft",15,285,TRUE,-1,1,1,5,0.6875,760.954062498968,787.824545452498,1145.92661156727,"Yes","20210312_135907_gg4ka","0.0.1","12/03/2021 13:59:07","20210312","135907",8,1920,937,"1920x937",1920,1080,"1920x1080",24,24,FALSE,"Netscape","Mozilla","Gecko","5.0 (Windows NT 10.0; Win64; x64) AppleWebKit/537.36 (KHTML, like Gecko) Chrome/89.0.4389.82 Safari/537.36","Mozilla/5.0 (Windows NT 10.0; Win64; x64) AppleWebKit/537.36 (KHTML, like Gecko) Chrome/89.0.4389.82 Safari/537.36","Win32","en-US",517.695000002277,"20121999","TS",10174.5999999985,"Yes",2142.25499999884,0.75,763.81374999869,777.275624998159,1036.36749999755
"delboeuf",802.874999993946,"stimuli/Delboeuf_str0.33_diff-1.0.png","arrowright","arrowright",17,261,TRUE,0.333333333333333,-1,1,6,0.6875,760.954062498968,787.824545452498,1145.92661156727,"Yes","20210312_135907_gg4ka","0.0.1","12/03/2021 13:59:07","20210312","135907",8,1920,937,"1920x937",1920,1080,"1920x1080",24,24,FALSE,"Netscape","Mozilla","Gecko","5.0 (Windows NT 10.0; Win64; x64) AppleWebKit/537.36 (KHTML, like Gecko) Chrome/89.0.4389.82 Safari/537.36","Mozilla/5.0 (Windows NT 10.0; Win64; x64) AppleWebKit/537.36 (KHTML, like Gecko) Chrome/89.0.4389.82 Safari/537.36","Win32","en-US",517.695000002277,"20121999","TS",10174.5999999985,"Yes",2142.25499999884,0.75,763.81374999869,777.275624998159,1036.36749999755
"delboeuf",693.335000003572,"stimuli/Delboeuf_str-1.0_diff-0.33.png","arrowleft","arrowright",19,404,FALSE,-1,-0.333333333333333,1,7,0.6875,760.954062498968,787.824545452498,1145.92661156727,"Yes","20210312_135907_gg4ka","0.0.1","12/03/2021 13:59:07","20210312","135907",8,1920,937,"1920x937",1920,1080,"1920x1080",24,24,FALSE,"Netscape","Mozilla","Gecko","5.0 (Windows NT 10.0; Win64; x64) AppleWebKit/537.36 (KHTML, like Gecko) Chrome/89.0.4389.82 Safari/537.36","Mozilla/5.0 (Windows NT 10.0; Win64; x64) AppleWebKit/537.36 (KHTML, like Gecko) Chrome/89.0.4389.82 Safari/537.36","Win32","en-US",517.695000002277,"20121999","TS",10174.5999999985,"Yes",2142.25499999884,0.75,763.81374999869,777.275624998159,1036.36749999755
"delboeuf",671.214999994845,"stimuli/Delboeuf_str0.33_diff0.33.png","arrowleft","arrowleft",21,450,TRUE,0.333333333333333,0.333333333333333,1,8,0.6875,760.954062498968,787.824545452498,1145.92661156727,"Yes","20210312_135907_gg4ka","0.0.1","12/03/2021 13:59:07","20210312","135907",8,1920,937,"1920x937",1920,1080,"1920x1080",24,24,FALSE,"Netscape","Mozilla","Gecko","5.0 (Windows NT 10.0; Win64; x64) AppleWebKit/537.36 (KHTML, like Gecko) Chrome/89.0.4389.82 Safari/537.36","Mozilla/5.0 (Windows NT 10.0; Win64; x64) AppleWebKit/537.36 (KHTML, like Gecko) Chrome/89.0.4389.82 Safari/537.36","Win32","en-US",517.695000002277,"20121999","TS",10174.5999999985,"Yes",2142.25499999884,0.75,763.81374999869,777.275624998159,1036.36749999755
"delboeuf",672.474999999395,"stimuli/Delboeuf_str-0.33_diff1.0.png","arrowright","arrowleft",23,477,FALSE,-0.333333333333333,1,1,9,0.6875,760.954062498968,787.824545452498,1145.92661156727,"Yes","20210312_135907_gg4ka","0.0.1","12/03/2021 13:59:07","20210312","135907",8,1920,937,"1920x937",1920,1080,"1920x1080",24,24,FALSE,"Netscape","Mozilla","Gecko","5.0 (Windows NT 10.0; Win64; x64) AppleWebKit/537.36 (KHTML, like Gecko) Chrome/89.0.4389.82 Safari/537.36","Mozilla/5.0 (Windows NT 10.0; Win64; x64) AppleWebKit/537.36 (KHTML, like Gecko) Chrome/89.0.4389.82 Safari/537.36","Win32","en-US",517.695000002277,"20121999","TS",10174.5999999985,"Yes",2142.25499999884,0.75,763.81374999869,777.275624998159,1036.36749999755
"delboeuf",878.974999999627,"stimuli/Delboeuf_str-0.33_diff0.33.png","arrowleft","arrowleft",25,438,TRUE,-0.333333333333333,0.333333333333333,1,10,0.6875,760.954062498968,787.824545452498,1145.92661156727,"Yes","20210312_135907_gg4ka","0.0.1","12/03/2021 13:59:07","20210312","135907",8,1920,937,"1920x937",1920,1080,"1920x1080",24,24,FALSE,"Netscape","Mozilla","Gecko","5.0 (Windows NT 10.0; Win64; x64) AppleWebKit/537.36 (KHTML, like Gecko) Chrome/89.0.4389.82 Safari/537.36","Mozilla/5.0 (Windows NT 10.0; Win64; x64) AppleWebKit/537.36 (KHTML, like Gecko) Chrome/89.0.4389.82 Safari/537.36","Win32","en-US",517.695000002277,"20121999","TS",10174.5999999985,"Yes",2142.25499999884,0.75,763.81374999869,777.275624998159,1036.36749999755
