[{"success":true,"trial_type":"fullscreen","trial_index":0,"time_elapsed":29181,"internal_node_id":"0.0-0.0","participant_id":"02wkma28n5"},{"success":true,"timeout":false,"failed_images":[],"failed_audio":[],"failed_video":[],"trial_type":"preload","trial_index":1,"time_elapsed":29797,"internal_node_id":"0.0-1.0","participant_id":"02wkma28n5"},{"rt":12646,"stimulus":"<p><b>The Illusion Game</b></p><p>In this game of speed and reflex, you will need to make <b>visual judgments</b> of different targets (for instance, which circle is the biggest, or which line is the longest), as <b>quickly</b> as possible.</p><p>It can be challenging at times, so you want to rely on your intuition and gut feeling to answer as <b>fast</b> as you can.</p><p>Don't worry, we will show you examples of each target before each block.</p><p>Remember, your goal is to be as <b>fast</b> as possible. Good luck!</p>","response":0,"screen":"general_instructions","trial_type":"html-button-response","trial_index":2,"time_elapsed":42444,"internal_node_id":"0.0-2.0","participant_id":"02wkma28n5"},{"success":true,"timeout":false,"failed_images":[],"failed_audio":[],"failed_video":[],"trial_type":"preload","trial_index":3,"time_elapsed":43497,"internal_node_id":"0.0-3.0-0.0","participant_id":"02wkma28n5"},{"rt":12418,"stimulus":"<p><b>Part 1</b></p><p>In this part, two red circles will appear side by side on the screen.</p><p>Your task is to select which <b>red circle is bigger</b> in size as fast as you can, without making errors.</p><p>Press <b>the LEFT or the RIGHT arrow</b> to indicate which is the bigger <b>red circle.</b></p><div style='float: center'><img src='utils/stimuli_demo/Delboeuf_Demo.png' height='300'></img><p><img src='utils/answer/answer_leftright_keyboard.PNG' height='150'></img></p><p class='small'>In this example, the correct answer is the <b>LEFT arrow</b>.</p></div><p>Are you ready? <b>Press ENTER to start</b></p>","response":"enter","trial_type":"html-keyboard-response","trial_index":4,"time_elapsed":55916,"internal_node_id":"0.0-3.0-1.0","participant_id":"02wkma28n5"},{"rt":null,"stimulus":"<div style=\"font-size:60px;\">+</div>","response":null,"screen":"fixation","trial_type":"html-keyboard-response","trial_index":5,"time_elapsed":57051,"internal_node_id":"0.0-3.0-2.0-0.0","participant_id":"02wkma28n5","trial_duration":627},{"rt":757,"stimulus":"stimuli/Delboeuf_str0_diff0.871923.png","response":"arrowleft","screen":"Trial","block":"Delboeuf","correct_response":"arrowleft","trial_type":"image-keyboard-response","trial_index":6,"time_elapsed":57823,"internal_node_id":"0.0-3.0-2.0-1.0","participant_id":"02wkma28n5","prestimulus_duration":1135,"correct":true,"type":"Delboeuf","illusion_strength":0,"illusion_difference":0.8719230769230769,"block_number":1,"trial_number":1},{"rt":null,"stimulus":"<div style=\"font-size:60px;\">+</div>","response":null,"screen":"fixation","trial_type":"html-keyboard-response","trial_index":7,"time_elapsed":58827,"internal_node_id":"0.0-3.0-2.0-0.1","participant_id":"02wkma28n5","trial_duration":999},{"rt":805,"stimulus":"stimuli/Delboeuf_str0_diff0.077846.png","response":"arrowright","screen":"Trial","block":"Delboeuf","correct_response":"arrowleft","trial_type":"image-keyboard-response","trial_index":8,"time_elapsed":59647,"internal_node_id":"0.0-3.0-2.0-1.1","participant_id":"02wkma28n5","prestimulus_duration":1004,"correct":false,"type":"Delboeuf","illusion_strength":0,"illusion_difference":0.07784615384615384,"block_number":1,"trial_number":2},{"rt":null,"stimulus":"<div style=\"font-size:60px;\">+</div>","response":null,"screen":"fixation","trial_type":"html-keyboard-response","trial_index":9,"time_elapsed":60289,"internal_node_id":"0.0-3.0-2.0-0.2","participant_id":"02wkma28n5","trial_duration":639},{"rt":611,"stimulus":"stimuli/Delboeuf_str0_diff0.257154.png","response":"arrowleft","screen":"Trial","block":"Delboeuf","correct_response":"arrowleft","trial_type":"image-keyboard-response","trial_index":10,"time_elapsed":60914,"internal_node_id":"0.0-3.0-2.0-1.2","participant_id":"02wkma28n5","prestimulus_duration":642,"correct":true,"type":"Delboeuf","illusion_strength":0,"illusion_difference":0.2571538461538462,"block_number":1,"trial_number":3},{"rt":null,"stimulus":"<div style=\"font-size:60px;\">+</div>","response":null,"screen":"fixation","trial_type":"html-keyboard-response","trial_index":11,"time_elapsed":61726,"internal_node_id":"0.0-3.0-2.0-0.3","participant_id":"02wkma28n5","trial_duration":811},{"rt":589,"stimulus":"stimuli/Delboeuf_str0_diff0.948769.png","response":"arrowleft","screen":"Trial","block":"Delboeuf","correct_response":"arrowleft","trial_type":"image-keyboard-response","trial_index":12,"time_elapsed":62329,"internal_node_id":"0.0-3.0-2.0-1.3","participant_id":"02wkma28n5","prestimulus_duration":812,"correct":true,"type":"Delboeuf","illusion_strength":0,"illusion_difference":0.9487692307692308,"block_number":1,"trial_number":4},{"rt":null,"stimulus":"<div style=\"font-size:60px;\">+</div>","response":null,"screen":"fixation","trial_type":"html-keyboard-response","trial_index":13,"time_elapsed":63017,"internal_node_id":"0.0-3.0-2.0-0.4","participant_id":"02wkma28n5","trial_duration":684},{"rt":483,"stimulus":"stimuli/Delboeuf_str0_diff-0.718231.png","response":"arrowright","screen":"Trial","block":"Delboeuf","correct_response":"arrowright","trial_type":"image-keyboard-response","trial_index":14,"time_elapsed":63514,"internal_node_id":"0.0-3.0-2.0-1.4","participant_id":"02wkma28n5","prestimulus_duration":688,"correct":true,"type":"Delboeuf","illusion_strength":0,"illusion_difference":-0.7182307692307692,"block_number":1,"trial_number":5},{"rt":null,"stimulus":"<div style=\"font-size:60px;\">+</div>","response":null,"screen":"fixation","trial_type":"html-keyboard-response","trial_index":15,"time_elapsed":64072,"internal_node_id":"0.0-3.0-2.0-0.5","participant_id":"02wkma28n5","trial_duration":557},{"rt":2022,"stimulus":"stimuli/Delboeuf_str0_diff-0.026615.png","response":"arrowright","screen":"Trial","block":"Delboeuf","correct_response":"arrowright","trial_type":"image-keyboard-response","trial_index":16,"time_elapsed":66108,"internal_node_id":"0.0-3.0-2.0-1.5","participant_id":"02wkma28n5","prestimulus_duration":558,"correct":true,"type":"Delboeuf","illusion_strength":0,"illusion_difference":-0.026615384615384617,"block_number":1,"trial_number":6},{"rt":null,"stimulus":"<div style=\"font-size:60px;\">+</div>","response":null,"screen":"fixation","trial_type":"html-keyboard-response","trial_index":17,"time_elapsed":66777,"internal_node_id":"0.0-3.0-2.0-0.6","participant_id":"02wkma28n5","trial_duration":663},{"rt":790,"stimulus":"stimuli/Delboeuf_str0_diff-0.487692.png","response":"arrowright","screen":"Trial","block":"Delboeuf","correct_response":"arrowright","trial_type":"image-keyboard-response","trial_index":18,"time_elapsed":67580,"internal_node_id":"0.0-3.0-2.0-1.6","participant_id":"02wkma28n5","prestimulus_duration":669,"correct":true,"type":"Delboeuf","illusion_strength":0,"illusion_difference":-0.4876923076923077,"block_number":1,"trial_number":7},{"rt":null,"stimulus":"<div style=\"font-size:60px;\">+</div>","response":null,"screen":"fixation","trial_type":"html-keyboard-response","trial_index":19,"time_elapsed":68407,"internal_node_id":"0.0-3.0-2.0-0.7","participant_id":"02wkma28n5","trial_duration":821},{"rt":463,"stimulus":"stimuli/Delboeuf_str0_diff-0.974385.png","response":"arrowright","screen":"Trial","block":"Delboeuf","correct_response":"arrowright","trial_type":"image-keyboard-response","trial_index":20,"time_elapsed":68880,"internal_node_id":"0.0-3.0-2.0-1.7","participant_id":"02wkma28n5","prestimulus_duration":827,"correct":true,"type":"Delboeuf","illusion_strength":0,"illusion_difference":-0.9743846153846154,"block_number":1,"trial_number":8},{"rt":null,"stimulus":"<div style=\"font-size:60px;\">+</div>","response":null,"screen":"fixation","trial_type":"html-keyboard-response","trial_index":21,"time_elapsed":69743,"internal_node_id":"0.0-3.0-2.0-0.8","participant_id":"02wkma28n5","trial_duration":861},{"rt":902,"stimulus":"stimuli/Delboeuf_str0_diff0.026615.png","response":"arrowleft","screen":"Trial","block":"Delboeuf","correct_response":"arrowleft","trial_type":"image-keyboard-response","trial_index":22,"time_elapsed":70658,"internal_node_id":"0.0-3.0-2.0-1.8","participant_id":"02wkma28n5","prestimulus_duration":863,"correct":true,"type":"Delboeuf","illusion_strength":0,"illusion_difference":0.026615384615384617,"block_number":1,"trial_number":9},{"rt":null,"stimulus":"<div style=\"font-size:60px;\">+</div>","response":null,"screen":"fixation","trial_type":"html-keyboard-response","trial_index":23,"time_elapsed":71306,"internal_node_id":"0.0-3.0-2.0-0.9","participant_id":"02wkma28n5","trial_duration":644},{"rt":596,"stimulus":"stimuli/Delboeuf_str0_diff-0.538923.png","response":"arrowright","screen":"Trial","block":"Delboeuf","correct_response":"arrowright","trial_type":"image-keyboard-response","trial_index":24,"time_elapsed":71917,"internal_node_id":"0.0-3.0-2.0-1.9","participant_id":"02wkma28n5","prestimulus_duration":648,"correct":true,"type":"Delboeuf","illusion_strength":0,"illusion_difference":-0.538923076923077,"block_number":1,"trial_number":10},{"rt":null,"stimulus":"<div style=\"font-size:60px;\">+</div>","response":null,"screen":"fixation","trial_type":"html-keyboard-response","trial_index":25,"time_elapsed":72825,"internal_node_id":"0.0-3.0-2.0-0.10","participant_id":"02wkma28n5","trial_duration":901},{"rt":1821,"stimulus":"stimuli/Delboeuf_str0_diff-0.052231.png","response":"arrowright","screen":"Trial","block":"Delboeuf","correct_response":"arrowright","trial_type":"image-keyboard-response","trial_index":26,"time_elapsed":74661,"internal_node_id":"0.0-3.0-2.0-1.10","participant_id":"02wkma28n5","prestimulus_duration":908,"correct":true,"type":"Delboeuf","illusion_strength":0,"illusion_difference":-0.05223076923076923,"block_number":1,"trial_number":11},{"rt":null,"stimulus":"<div style=\"font-size:60px;\">+</div>","response":null,"screen":"fixation","trial_type":"html-keyboard-response","trial_index":27,"time_elapsed":75204,"internal_node_id":"0.0-3.0-2.0-0.11","participant_id":"02wkma28n5","trial_duration":541},{"rt":559,"stimulus":"stimuli/Delboeuf_str0_diff0.564538.png","response":"arrowleft","screen":"Trial","block":"Delboeuf","correct_response":"arrowleft","trial_type":"image-keyboard-response","trial_index":28,"time_elapsed":75778,"internal_node_id":"0.0-3.0-2.0-1.11","participant_id":"02wkma28n5","prestimulus_duration":543,"correct":true,"type":"Delboeuf","illusion_strength":0,"illusion_difference":0.5645384615384615,"block_number":1,"trial_number":12},{"rt":null,"stimulus":"<div style=\"font-size:60px;\">+</div>","response":null,"screen":"fixation","trial_type":"html-keyboard-response","trial_index":29,"time_elapsed":76551,"internal_node_id":"0.0-3.0-2.0-0.12","participant_id":"02wkma28n5","trial_duration":766},{"rt":857,"stimulus":"stimuli/Delboeuf_str0_diff-0.667.png","response":"arrowright","screen":"Trial","block":"Delboeuf","correct_response":"arrowright","trial_type":"image-keyboard-response","trial_index":30,"time_elapsed":77420,"internal_node_id":"0.0-3.0-2.0-1.12","participant_id":"02wkma28n5","prestimulus_duration":773,"correct":true,"type":"Delboeuf","illusion_strength":0,"illusion_difference":-0.667,"block_number":1,"trial_number":13},{"rt":null,"stimulus":"<div style=\"font-size:60px;\">+</div>","response":null,"screen":"fixation","trial_type":"html-keyboard-response","trial_index":31,"time_elapsed":78056,"internal_node_id":"0.0-3.0-2.0-0.13","participant_id":"02wkma28n5","trial_duration":633},{"rt":2717,"stimulus":"stimuli/Delboeuf_str0_diff0.052231.png","response":"arrowleft","screen":"Trial","block":"Delboeuf","correct_response":"arrowleft","trial_type":"image-keyboard-response","trial_index":32,"time_elapsed":80788,"internal_node_id":"0.0-3.0-2.0-1.13","participant_id":"02wkma28n5","prestimulus_duration":636,"correct":true,"type":"Delboeuf","illusion_strength":0,"illusion_difference":0.05223076923076923,"block_number":1,"trial_number":14},{"rt":null,"stimulus":"<div style=\"font-size:60px;\">+</div>","response":null,"screen":"fixation","trial_type":"html-keyboard-response","trial_index":33,"time_elapsed":81383,"internal_node_id":"0.0-3.0-2.0-0.14","participant_id":"02wkma28n5","trial_duration":589},{"rt":804,"stimulus":"stimuli/Delboeuf_str0_diff-0.743846.png","response":"arrowright","screen":"Trial","block":"Delboeuf","correct_response":"arrowright","trial_type":"image-keyboard-response","trial_index":34,"time_elapsed":82200,"internal_node_id":"0.0-3.0-2.0-1.14","participant_id":"02wkma28n5","prestimulus_duration":595,"correct":true,"type":"Delboeuf","illusion_strength":0,"illusion_difference":-0.7438461538461538,"block_number":1,"trial_number":15},{"rt":null,"stimulus":"<div style=\"font-size:60px;\">+</div>","response":null,"screen":"fixation","trial_type":"html-keyboard-response","trial_index":35,"time_elapsed":83166,"internal_node_id":"0.0-3.0-2.0-0.15","participant_id":"02wkma28n5","trial_duration":960},{"rt":633,"stimulus":"stimuli/Delboeuf_str0_diff-0.820692.png","response":"arrowright","screen":"Trial","block":"Delboeuf","correct_response":"arrowright","trial_type":"image-keyboard-response","trial_index":36,"time_elapsed":83812,"internal_node_id":"0.0-3.0-2.0-1.15","participant_id":"02wkma28n5","prestimulus_duration":966,"correct":true,"type":"Delboeuf","illusion_strength":0,"illusion_difference":-0.8206923076923077,"block_number":1,"trial_number":16},{"rt":null,"stimulus":"<div style=\"font-size:60px;\">+</div>","response":null,"screen":"fixation","trial_type":"html-keyboard-response","trial_index":37,"time_elapsed":84446,"internal_node_id":"0.0-3.0-2.0-0.16","participant_id":"02wkma28n5","trial_duration":627},{"rt":800,"stimulus":"stimuli/Delboeuf_str0_diff-0.077846.png","response":"arrowright","screen":"Trial","block":"Delboeuf","correct_response":"arrowright","trial_type":"image-keyboard-response","trial_index":38,"time_elapsed":85259,"internal_node_id":"0.0-3.0-2.0-1.16","participant_id":"02wkma28n5","prestimulus_duration":634,"correct":true,"type":"Delboeuf","illusion_strength":0,"illusion_difference":-0.07784615384615384,"block_number":1,"trial_number":17},{"rt":null,"stimulus":"<div style=\"font-size:60px;\">+</div>","response":null,"screen":"fixation","trial_type":"html-keyboard-response","trial_index":39,"time_elapsed":85858,"internal_node_id":"0.0-3.0-2.0-0.17","participant_id":"02wkma28n5","trial_duration":593},{"rt":555,"stimulus":"stimuli/Delboeuf_str0_diff-0.923154.png","response":"arrowright","screen":"Trial","block":"Delboeuf","correct_response":"arrowright","trial_type":"image-keyboard-response","trial_index":40,"time_elapsed":86426,"internal_node_id":"0.0-3.0-2.0-1.17","participant_id":"02wkma28n5","prestimulus_duration":599,"correct":true,"type":"Delboeuf","illusion_strength":0,"illusion_difference":-0.9231538461538462,"block_number":1,"trial_number":18},{"rt":null,"stimulus":"<div style=\"font-size:60px;\">+</div>","response":null,"screen":"fixation","trial_type":"html-keyboard-response","trial_index":41,"time_elapsed":87306,"internal_node_id":"0.0-3.0-2.0-0.18","participant_id":"02wkma28n5","trial_duration":874},{"rt":483,"stimulus":"stimuli/Delboeuf_str0_diff-0.692615.png","response":"arrowright","screen":"Trial","block":"Delboeuf","correct_response":"arrowright","trial_type":"image-keyboard-response","trial_index":42,"time_elapsed":87803,"internal_node_id":"0.0-3.0-2.0-1.18","participant_id":"02wkma28n5","prestimulus_duration":880,"correct":true,"type":"Delboeuf","illusion_strength":0,"illusion_difference":-0.6926153846153846,"block_number":1,"trial_number":19},{"rt":null,"stimulus":"<div style=\"font-size:60px;\">+</div>","response":null,"screen":"fixation","trial_type":"html-keyboard-response","trial_index":43,"time_elapsed":88447,"internal_node_id":"0.0-3.0-2.0-0.19","participant_id":"02wkma28n5","trial_duration":640},{"rt":552,"stimulus":"stimuli/Delboeuf_str0_diff0.385231.png","response":"arrowleft","screen":"Trial","block":"Delboeuf","correct_response":"arrowleft","trial_type":"image-keyboard-response","trial_index":44,"time_elapsed":89014,"internal_node_id":"0.0-3.0-2.0-1.19","participant_id":"02wkma28n5","prestimulus_duration":644,"correct":true,"type":"Delboeuf","illusion_strength":0,"illusion_difference":0.38523076923076927,"block_number":1,"trial_number":20},{"rt":null,"stimulus":"<div style=\"font-size:60px;\">+</div>","response":null,"screen":"fixation","trial_type":"html-keyboard-response","trial_index":45,"time_elapsed":89982,"internal_node_id":"0.0-3.0-2.0-0.20","participant_id":"02wkma28n5","trial_duration":963},{"rt":471,"stimulus":"stimuli/Delboeuf_str0_diff0.615769.png","response":"arrowleft","screen":"Trial","block":"Delboeuf","correct_response":"arrowleft","trial_type":"image-keyboard-response","trial_index":46,"time_elapsed":90467,"internal_node_id":"0.0-3.0-2.0-1.20","participant_id":"02wkma28n5","prestimulus_duration":968,"correct":true,"type":"Delboeuf","illusion_strength":0,"illusion_difference":0.6157692307692307,"block_number":1,"trial_number":21},{"rt":null,"stimulus":"<div style=\"font-size:60px;\">+</div>","response":null,"screen":"fixation","trial_type":"html-keyboard-response","trial_index":47,"time_elapsed":91159,"internal_node_id":"0.0-3.0-2.0-0.21","participant_id":"02wkma28n5","trial_duration":689},{"rt":555,"stimulus":"stimuli/Delboeuf_str0_diff-1.0.png","response":"arrowright","screen":"Trial","block":"Delboeuf","correct_response":"arrowright","trial_type":"image-keyboard-response","trial_index":48,"time_elapsed":91729,"internal_node_id":"0.0-3.0-2.0-1.21","participant_id":"02wkma28n5","prestimulus_duration":692,"correct":true,"type":"Delboeuf","illusion_strength":0,"illusion_difference":-1,"block_number":1,"trial_number":22},{"rt":null,"stimulus":"<div style=\"font-size:60px;\">+</div>","response":null,"screen":"fixation","trial_type":"html-keyboard-response","trial_index":49,"time_elapsed":92540,"internal_node_id":"0.0-3.0-2.0-0.22","participant_id":"02wkma28n5","trial_duration":805},{"rt":1745,"stimulus":"stimuli/Delboeuf_str0_diff-0.564538.png","response":"arrowright","screen":"Trial","block":"Delboeuf","correct_response":"arrowright","trial_type":"image-keyboard-response","trial_index":50,"time_elapsed":94299,"internal_node_id":"0.0-3.0-2.0-1.22","participant_id":"02wkma28n5","prestimulus_duration":811,"correct":true,"type":"Delboeuf","illusion_strength":0,"illusion_difference":-0.5645384615384615,"block_number":1,"trial_number":23},{"rt":null,"stimulus":"<div style=\"font-size:60px;\">+</div>","response":null,"screen":"fixation","trial_type":"html-keyboard-response","trial_index":51,"time_elapsed":95165,"internal_node_id":"0.0-3.0-2.0-0.23","participant_id":"02wkma28n5","trial_duration":860},{"rt":527,"stimulus":"stimuli/Delboeuf_str0_diff-0.385231.png","response":"arrowright","screen":"Trial","block":"Delboeuf","correct_response":"arrowright","trial_type":"image-keyboard-response","trial_index":52,"time_elapsed":95706,"internal_node_id":"0.0-3.0-2.0-1.23","participant_id":"02wkma28n5","prestimulus_duration":866,"correct":true,"type":"Delboeuf","illusion_strength":0,"illusion_difference":-0.38523076923076927,"block_number":1,"trial_number":24},{"rt":null,"stimulus":"<div style=\"font-size:60px;\">+</div>","response":null,"screen":"fixation","trial_type":"html-keyboard-response","trial_index":53,"time_elapsed":96212,"internal_node_id":"0.0-3.0-2.0-0.24","participant_id":"02wkma28n5","trial_duration":503},{"rt":519,"stimulus":"stimuli/Delboeuf_str0_diff0.667.png","response":"arrowleft","screen":"Trial","block":"Delboeuf","correct_response":"arrowleft","trial_type":"image-keyboard-response","trial_index":54,"time_elapsed":96745,"internal_node_id":"0.0-3.0-2.0-1.24","participant_id":"02wkma28n5","prestimulus_duration":506,"correct":true,"type":"Delboeuf","illusion_strength":0,"illusion_difference":0.667,"block_number":1,"trial_number":25},{"rt":null,"stimulus":"<div style=\"font-size:60px;\">+</div>","response":null,"screen":"fixation","trial_type":"html-keyboard-response","trial_index":55,"time_elapsed":97484,"internal_node_id":"0.0-3.0-2.0-0.25","participant_id":"02wkma28n5","trial_duration":732},{"rt":473,"stimulus":"stimuli/Delboeuf_str0_diff-0.590154.png","response":"arrowright","screen":"Trial","block":"Delboeuf","correct_response":"arrowright","trial_type":"image-keyboard-response","trial_index":56,"time_elapsed":97970,"internal_node_id":"0.0-3.0-2.0-1.25","participant_id":"02wkma28n5","prestimulus_duration":739,"correct":true,"type":"Delboeuf","illusion_strength":0,"illusion_difference":-0.5901538461538461,"block_number":1,"trial_number":26},{"rt":null,"stimulus":"<div style=\"font-size:60px;\">+</div>","response":null,"screen":"fixation","trial_type":"html-keyboard-response","trial_index":57,"time_elapsed":98971,"internal_node_id":"0.0-3.0-2.0-0.26","participant_id":"02wkma28n5","trial_duration":994},{"rt":503,"stimulus":"stimuli/Delboeuf_str0_diff0.820692.png","response":"arrowleft","screen":"Trial","block":"Delboeuf","correct_response":"arrowleft","trial_type":"image-keyboard-response","trial_index":58,"time_elapsed":99486,"internal_node_id":"0.0-3.0-2.0-1.26","participant_id":"02wkma28n5","prestimulus_duration":1001,"correct":true,"type":"Delboeuf","illusion_strength":0,"illusion_difference":0.8206923076923077,"block_number":1,"trial_number":27},{"rt":null,"stimulus":"<div style=\"font-size:60px;\">+</div>","response":null,"screen":"fixation","trial_type":"html-keyboard-response","trial_index":59,"time_elapsed":100287,"internal_node_id":"0.0-3.0-2.0-0.27","participant_id":"02wkma28n5","trial_duration":797},{"rt":711,"stimulus":"stimuli/Delboeuf_str0_diff-0.001.png","response":"arrowright","screen":"Trial","block":"Delboeuf","correct_response":"arrowright","trial_type":"image-keyboard-response","trial_index":60,"time_elapsed":101012,"internal_node_id":"0.0-3.0-2.0-1.27","participant_id":"02wkma28n5","prestimulus_duration":801,"correct":true,"type":"Delboeuf","illusion_strength":0,"illusion_difference":-0.001,"block_number":1,"trial_number":28},{"rt":null,"stimulus":"<div style=\"font-size:60px;\">+</div>","response":null,"screen":"fixation","trial_type":"html-keyboard-response","trial_index":61,"time_elapsed":101620,"internal_node_id":"0.0-3.0-2.0-0.28","participant_id":"02wkma28n5","trial_duration":602},{"rt":440,"stimulus":"stimuli/Delboeuf_str0_diff0.897538.png","response":"arrowleft","screen":"Trial","block":"Delboeuf","correct_response":"arrowleft","trial_type":"image-keyboard-response","trial_index":62,"time_elapsed":102074,"internal_node_id":"0.0-3.0-2.0-1.28","participant_id":"02wkma28n5","prestimulus_duration":608,"correct":true,"type":"Delboeuf","illusion_strength":0,"illusion_difference":0.8975384615384616,"block_number":1,"trial_number":29},{"rt":null,"stimulus":"<div style=\"font-size:60px;\">+</div>","response":null,"screen":"fixation","trial_type":"html-keyboard-response","trial_index":63,"time_elapsed":102987,"internal_node_id":"0.0-3.0-2.0-0.29","participant_id":"02wkma28n5","trial_duration":907},{"rt":1019,"stimulus":"stimuli/Delboeuf_str0_diff0.692615.png","response":"arrowleft","screen":"Trial","block":"Delboeuf","correct_response":"arrowleft","trial_type":"image-keyboard-response","trial_index":64,"time_elapsed":104021,"internal_node_id":"0.0-3.0-2.0-1.29","participant_id":"02wkma28n5","prestimulus_duration":913,"correct":true,"type":"Delboeuf","illusion_strength":0,"illusion_difference":0.6926153846153846,"block_number":1,"trial_number":30},{"rt":null,"stimulus":"<div style=\"font-size:60px;\">+</div>","response":null,"screen":"fixation","trial_type":"html-keyboard-response","trial_index":65,"time_elapsed":104654,"internal_node_id":"0.0-3.0-2.0-0.30","participant_id":"02wkma28n5","trial_duration":629},{"rt":566,"stimulus":"stimuli/Delboeuf_str0_diff-0.129077.png","response":"arrowright","screen":"Trial","block":"Delboeuf","correct_response":"arrowright","trial_type":"image-keyboard-response","trial_index":66,"time_elapsed":105236,"internal_node_id":"0.0-3.0-2.0-1.30","participant_id":"02wkma28n5","prestimulus_duration":633,"correct":true,"type":"Delboeuf","illusion_strength":0,"illusion_difference":-0.1290769230769231,"block_number":1,"trial_number":31},{"rt":null,"stimulus":"<div style=\"font-size:60px;\">+</div>","response":null,"screen":"fixation","trial_type":"html-keyboard-response","trial_index":67,"time_elapsed":106167,"internal_node_id":"0.0-3.0-2.0-0.31","participant_id":"02wkma28n5","trial_duration":924},{"rt":754,"stimulus":"stimuli/Delboeuf_str0_diff0.974385.png","response":"arrowleft","screen":"Trial","block":"Delboeuf","correct_response":"arrowleft","trial_type":"image-keyboard-response","trial_index":68,"time_elapsed":106934,"internal_node_id":"0.0-3.0-2.0-1.31","participant_id":"02wkma28n5","prestimulus_duration":931,"correct":true,"type":"Delboeuf","illusion_strength":0,"illusion_difference":0.9743846153846154,"block_number":1,"trial_number":32},{"rt":null,"stimulus":"<div style=\"font-size:60px;\">+</div>","response":null,"screen":"fixation","trial_type":"html-keyboard-response","trial_index":69,"time_elapsed":107805,"internal_node_id":"0.0-3.0-2.0-0.32","participant_id":"02wkma28n5","trial_duration":864},{"rt":674,"stimulus":"stimuli/Delboeuf_str0_diff-0.846308.png","response":"arrowright","screen":"Trial","block":"Delboeuf","correct_response":"arrowright","trial_type":"image-keyboard-response","trial_index":70,"time_elapsed":108493,"internal_node_id":"0.0-3.0-2.0-1.32","participant_id":"02wkma28n5","prestimulus_duration":871,"correct":true,"type":"Delboeuf","illusion_strength":0,"illusion_difference":-0.8463076923076923,"block_number":1,"trial_number":33},{"rt":null,"stimulus":"<div style=\"font-size:60px;\">+</div>","response":null,"screen":"fixation","trial_type":"html-keyboard-response","trial_index":71,"time_elapsed":109420,"internal_node_id":"0.0-3.0-2.0-0.33","participant_id":"02wkma28n5","trial_duration":920},{"rt":1256,"stimulus":"stimuli/Delboeuf_str0_diff-0.308385.png","response":"arrowright","screen":"Trial","block":"Delboeuf","correct_response":"arrowright","trial_type":"image-keyboard-response","trial_index":72,"time_elapsed":110689,"internal_node_id":"0.0-3.0-2.0-1.33","participant_id":"02wkma28n5","prestimulus_duration":927,"correct":true,"type":"Delboeuf","illusion_strength":0,"illusion_difference":-0.30838461538461537,"block_number":1,"trial_number":34},{"rt":null,"stimulus":"<div style=\"font-size:60px;\">+</div>","response":null,"screen":"fixation","trial_type":"html-keyboard-response","trial_index":73,"time_elapsed":111685,"internal_node_id":"0.0-3.0-2.0-0.34","participant_id":"02wkma28n5","trial_duration":989},{"rt":597,"stimulus":"stimuli/Delboeuf_str0_diff-0.154692.png","response":"arrowright","screen":"Trial","block":"Delboeuf","correct_response":"arrowright","trial_type":"image-keyboard-response","trial_index":74,"time_elapsed":112296,"internal_node_id":"0.0-3.0-2.0-1.34","participant_id":"02wkma28n5","prestimulus_duration":996,"correct":true,"type":"Delboeuf","illusion_strength":0,"illusion_difference":-0.15469230769230768,"block_number":1,"trial_number":35},{"rt":null,"stimulus":"<div style=\"font-size:60px;\">+</div>","response":null,"screen":"fixation","trial_type":"html-keyboard-response","trial_index":75,"time_elapsed":112884,"internal_node_id":"0.0-3.0-2.0-0.35","participant_id":"02wkma28n5","trial_duration":582},{"rt":589,"stimulus":"stimuli/Delboeuf_str0_diff-0.231538.png","response":"arrowright","screen":"Trial","block":"Delboeuf","correct_response":"arrowright","trial_type":"image-keyboard-response","trial_index":76,"time_elapsed":113487,"internal_node_id":"0.0-3.0-2.0-1.35","participant_id":"02wkma28n5","prestimulus_duration":588,"correct":true,"type":"Delboeuf","illusion_strength":0,"illusion_difference":-0.23153846153846155,"block_number":1,"trial_number":36},{"rt":null,"stimulus":"<div style=\"font-size:60px;\">+</div>","response":null,"screen":"fixation","trial_type":"html-keyboard-response","trial_index":77,"time_elapsed":114286,"internal_node_id":"0.0-3.0-2.0-0.36","participant_id":"02wkma28n5","trial_duration":793},{"rt":463,"stimulus":"stimuli/Delboeuf_str0_diff0.923154.png","response":"arrowleft","screen":"Trial","block":"Delboeuf","correct_response":"arrowleft","trial_type":"image-keyboard-response","trial_index":78,"time_elapsed":114764,"internal_node_id":"0.0-3.0-2.0-1.36","participant_id":"02wkma28n5","prestimulus_duration":799,"correct":true,"type":"Delboeuf","illusion_strength":0,"illusion_difference":0.9231538461538462,"block_number":1,"trial_number":37},{"rt":null,"stimulus":"<div style=\"font-size:60px;\">+</div>","response":null,"screen":"fixation","trial_type":"html-keyboard-response","trial_index":79,"time_elapsed":115482,"internal_node_id":"0.0-3.0-2.0-0.37","participant_id":"02wkma28n5","trial_duration":717},{"rt":466,"stimulus":"stimuli/Delboeuf_str0_diff0.231538.png","response":"arrowright","screen":"Trial","block":"Delboeuf","correct_response":"arrowleft","trial_type":"image-keyboard-response","trial_index":80,"time_elapsed":115962,"internal_node_id":"0.0-3.0-2.0-1.37","participant_id":"02wkma28n5","prestimulus_duration":718,"correct":false,"type":"Delboeuf","illusion_strength":0,"illusion_difference":0.23153846153846155,"block_number":1,"trial_number":38},{"rt":null,"stimulus":"<div style=\"font-size:60px;\">+</div>","response":null,"screen":"fixation","trial_type":"html-keyboard-response","trial_index":81,"time_elapsed":116678,"internal_node_id":"0.0-3.0-2.0-0.38","participant_id":"02wkma28n5","trial_duration":714},{"rt":567,"stimulus":"stimuli/Delboeuf_str0_diff0.410846.png","response":"arrowleft","screen":"Trial","block":"Delboeuf","correct_response":"arrowleft","trial_type":"image-keyboard-response","trial_index":82,"time_elapsed":117258,"internal_node_id":"0.0-3.0-2.0-1.38","participant_id":"02wkma28n5","prestimulus_duration":716,"correct":true,"type":"Delboeuf","illusion_strength":0,"illusion_difference":0.41084615384615386,"block_number":1,"trial_number":39},{"rt":null,"stimulus":"<div style=\"font-size:60px;\">+</div>","response":null,"screen":"fixation","trial_type":"html-keyboard-response","trial_index":83,"time_elapsed":117969,"internal_node_id":"0.0-3.0-2.0-0.39","participant_id":"02wkma28n5","trial_duration":704},{"rt":474,"stimulus":"stimuli/Delboeuf_str0_diff-0.257154.png","response":"arrowright","screen":"Trial","block":"Delboeuf","correct_response":"arrowright","trial_type":"image-keyboard-response","trial_index":84,"time_elapsed":118458,"internal_node_id":"0.0-3.0-2.0-1.39","participant_id":"02wkma28n5","prestimulus_duration":711,"correct":true,"type":"Delboeuf","illusion_strength":0,"illusion_difference":-0.2571538461538462,"block_number":1,"trial_number":40},{"rt":null,"stimulus":"<div style=\"font-size:60px;\">+</div>","response":null,"screen":"fixation","trial_type":"html-keyboard-response","trial_index":85,"time_elapsed":119212,"internal_node_id":"0.0-3.0-2.0-0.40","participant_id":"02wkma28n5","trial_duration":752},{"rt":407,"stimulus":"stimuli/Delboeuf_str0_diff-0.897538.png","response":"arrowright","screen":"Trial","block":"Delboeuf","correct_response":"arrowright","trial_type":"image-keyboard-response","trial_index":86,"time_elapsed":119634,"internal_node_id":"0.0-3.0-2.0-1.40","participant_id":"02wkma28n5","prestimulus_duration":754,"correct":true,"type":"Delboeuf","illusion_strength":0,"illusion_difference":-0.8975384615384616,"block_number":1,"trial_number":41},{"rt":null,"stimulus":"<div style=\"font-size:60px;\">+</div>","response":null,"screen":"fixation","trial_type":"html-keyboard-response","trial_index":87,"time_elapsed":120321,"internal_node_id":"0.0-3.0-2.0-0.41","participant_id":"02wkma28n5","trial_duration":681},{"rt":435,"stimulus":"stimuli/Delboeuf_str0_diff-0.513308.png","response":"arrowright","screen":"Trial","block":"Delboeuf","correct_response":"arrowright","trial_type":"image-keyboard-response","trial_index":88,"time_elapsed":120770,"internal_node_id":"0.0-3.0-2.0-1.41","participant_id":"02wkma28n5","prestimulus_duration":687,"correct":true,"type":"Delboeuf","illusion_strength":0,"illusion_difference":-0.5133076923076924,"block_number":1,"trial_number":42},{"rt":null,"stimulus":"<div style=\"font-size:60px;\">+</div>","response":null,"screen":"fixation","trial_type":"html-keyboard-response","trial_index":89,"time_elapsed":121353,"internal_node_id":"0.0-3.0-2.0-0.42","participant_id":"02wkma28n5","trial_duration":580},{"rt":817,"stimulus":"stimuli/Delboeuf_str0_diff-0.615769.png","response":"arrowright","screen":"Trial","block":"Delboeuf","correct_response":"arrowright","trial_type":"image-keyboard-response","trial_index":90,"time_elapsed":122183,"internal_node_id":"0.0-3.0-2.0-1.42","participant_id":"02wkma28n5","prestimulus_duration":583,"correct":true,"type":"Delboeuf","illusion_strength":0,"illusion_difference":-0.6157692307692307,"block_number":1,"trial_number":43},{"rt":null,"stimulus":"<div style=\"font-size:60px;\">+</div>","response":null,"screen":"fixation","trial_type":"html-keyboard-response","trial_index":91,"time_elapsed":123048,"internal_node_id":"0.0-3.0-2.0-0.43","participant_id":"02wkma28n5","trial_duration":863},{"rt":587,"stimulus":"stimuli/Delboeuf_str0_diff-0.462077.png","response":"arrowright","screen":"Trial","block":"Delboeuf","correct_response":"arrowright","trial_type":"image-keyboard-response","trial_index":92,"time_elapsed":123648,"internal_node_id":"0.0-3.0-2.0-1.43","participant_id":"02wkma28n5","prestimulus_duration":865,"correct":true,"type":"Delboeuf","illusion_strength":0,"illusion_difference":-0.4620769230769231,"block_number":1,"trial_number":44},{"rt":null,"stimulus":"<div style=\"font-size:60px;\">+</div>","response":null,"screen":"fixation","trial_type":"html-keyboard-response","trial_index":93,"time_elapsed":124238,"internal_node_id":"0.0-3.0-2.0-0.44","participant_id":"02wkma28n5","trial_duration":584},{"rt":1054,"stimulus":"stimuli/Delboeuf_str0_diff0.180308.png","response":"arrowleft","screen":"Trial","block":"Delboeuf","correct_response":"arrowleft","trial_type":"image-keyboard-response","trial_index":94,"time_elapsed":125307,"internal_node_id":"0.0-3.0-2.0-1.44","participant_id":"02wkma28n5","prestimulus_duration":590,"correct":true,"type":"Delboeuf","illusion_strength":0,"illusion_difference":0.1803076923076923,"block_number":1,"trial_number":45},{"rt":null,"stimulus":"<div style=\"font-size:60px;\">+</div>","response":null,"screen":"fixation","trial_type":"html-keyboard-response","trial_index":95,"time_elapsed":126045,"internal_node_id":"0.0-3.0-2.0-0.45","participant_id":"02wkma28n5","trial_duration":732},{"rt":744,"stimulus":"stimuli/Delboeuf_str0_diff0.154692.png","response":"arrowleft","screen":"Trial","block":"Delboeuf","correct_response":"arrowleft","trial_type":"image-keyboard-response","trial_index":96,"time_elapsed":126804,"internal_node_id":"0.0-3.0-2.0-1.45","participant_id":"02wkma28n5","prestimulus_duration":738,"correct":true,"type":"Delboeuf","illusion_strength":0,"illusion_difference":0.15469230769230768,"block_number":1,"trial_number":46},{"rt":null,"stimulus":"<div style=\"font-size:60px;\">+</div>","response":null,"screen":"fixation","trial_type":"html-keyboard-response","trial_index":97,"time_elapsed":127748,"internal_node_id":"0.0-3.0-2.0-0.46","participant_id":"02wkma28n5","trial_duration":944},{"rt":475,"stimulus":"stimuli/Delboeuf_str0_diff-0.871923.png","response":"arrowright","screen":"Trial","block":"Delboeuf","correct_response":"arrowright","trial_type":"image-keyboard-response","trial_index":98,"time_elapsed":128236,"internal_node_id":"0.0-3.0-2.0-1.46","participant_id":"02wkma28n5","prestimulus_duration":944,"correct":true,"type":"Delboeuf","illusion_strength":0,"illusion_difference":-0.8719230769230769,"block_number":1,"trial_number":47},{"rt":null,"stimulus":"<div style=\"font-size:60px;\">+</div>","response":null,"screen":"fixation","trial_type":"html-keyboard-response","trial_index":99,"time_elapsed":129110,"internal_node_id":"0.0-3.0-2.0-0.47","participant_id":"02wkma28n5","trial_duration":870},{"rt":980,"stimulus":"stimuli/Delboeuf_str0_diff-0.205923.png","response":"arrowright","screen":"Trial","block":"Delboeuf","correct_response":"arrowright","trial_type":"image-keyboard-response","trial_index":100,"time_elapsed":130104,"internal_node_id":"0.0-3.0-2.0-1.47","participant_id":"02wkma28n5","prestimulus_duration":874,"correct":true,"type":"Delboeuf","illusion_strength":0,"illusion_difference":-0.20592307692307693,"block_number":1,"trial_number":48},{"rt":null,"stimulus":"<div style=\"font-size:60px;\">+</div>","response":null,"screen":"fixation","trial_type":"html-keyboard-response","trial_index":101,"time_elapsed":130737,"internal_node_id":"0.0-3.0-2.0-0.48","participant_id":"02wkma28n5","trial_duration":630},{"rt":2215,"stimulus":"stimuli/Delboeuf_str0_diff-0.180308.png","response":"arrowright","screen":"Trial","block":"Delboeuf","correct_response":"arrowright","trial_type":"image-keyboard-response","trial_index":102,"time_elapsed":132964,"internal_node_id":"0.0-3.0-2.0-1.48","participant_id":"02wkma28n5","prestimulus_duration":633,"correct":true,"type":"Delboeuf","illusion_strength":0,"illusion_difference":-0.1803076923076923,"block_number":1,"trial_number":49},{"rt":null,"stimulus":"<div style=\"font-size:60px;\">+</div>","response":null,"screen":"fixation","trial_type":"html-keyboard-response","trial_index":103,"time_elapsed":133882,"internal_node_id":"0.0-3.0-2.0-0.49","participant_id":"02wkma28n5","trial_duration":912},{"rt":687,"stimulus":"stimuli/Delboeuf_str0_diff-0.334.png","response":"arrowright","screen":"Trial","block":"Delboeuf","correct_response":"arrowright","trial_type":"image-keyboard-response","trial_index":104,"time_elapsed":134583,"internal_node_id":"0.0-3.0-2.0-1.49","participant_id":"02wkma28n5","prestimulus_duration":918,"correct":true,"type":"Delboeuf","illusion_strength":0,"illusion_difference":-0.334,"block_number":1,"trial_number":50},{"rt":null,"stimulus":"<div style=\"font-size:60px;\">+</div>","response":null,"screen":"fixation","trial_type":"html-keyboard-response","trial_index":105,"time_elapsed":135561,"internal_node_id":"0.0-3.0-2.0-0.50","participant_id":"02wkma28n5","trial_duration":976},{"rt":546,"stimulus":"stimuli/Delboeuf_str0_diff-0.948769.png","response":"arrowright","screen":"Trial","block":"Delboeuf","correct_response":"arrowright","trial_type":"image-keyboard-response","trial_index":106,"time_elapsed":136122,"internal_node_id":"0.0-3.0-2.0-1.50","participant_id":"02wkma28n5","prestimulus_duration":978,"correct":true,"type":"Delboeuf","illusion_strength":0,"illusion_difference":-0.9487692307692308,"block_number":1,"trial_number":51},{"rt":null,"stimulus":"<div style=\"font-size:60px;\">+</div>","response":null,"screen":"fixation","trial_type":"html-keyboard-response","trial_index":107,"time_elapsed":136948,"internal_node_id":"0.0-3.0-2.0-0.51","participant_id":"02wkma28n5","trial_duration":824},{"rt":712,"stimulus":"stimuli/Delboeuf_str0_diff0.590154.png","response":"arrowright","screen":"Trial","block":"Delboeuf","correct_response":"arrowleft","trial_type":"image-keyboard-response","trial_index":108,"time_elapsed":137675,"internal_node_id":"0.0-3.0-2.0-1.51","participant_id":"02wkma28n5","prestimulus_duration":826,"correct":false,"type":"Delboeuf","illusion_strength":0,"illusion_difference":0.5901538461538461,"block_number":1,"trial_number":52},{"rt":null,"stimulus":"<div style=\"font-size:60px;\">+</div>","response":null,"screen":"fixation","trial_type":"html-keyboard-response","trial_index":109,"time_elapsed":138287,"internal_node_id":"0.0-3.0-2.0-0.52","participant_id":"02wkma28n5","trial_duration":606},{"rt":475,"stimulus":"stimuli/Delboeuf_str0_diff-0.359615.png","response":"arrowright","screen":"Trial","block":"Delboeuf","correct_response":"arrowright","trial_type":"image-keyboard-response","trial_index":110,"time_elapsed":138775,"internal_node_id":"0.0-3.0-2.0-1.52","participant_id":"02wkma28n5","prestimulus_duration":612,"correct":true,"type":"Delboeuf","illusion_strength":0,"illusion_difference":-0.3596153846153846,"block_number":1,"trial_number":53},{"rt":null,"stimulus":"<div style=\"font-size:60px;\">+</div>","response":null,"screen":"fixation","trial_type":"html-keyboard-response","trial_index":111,"time_elapsed":139752,"internal_node_id":"0.0-3.0-2.0-0.53","participant_id":"02wkma28n5","trial_duration":971},{"rt":768,"stimulus":"stimuli/Delboeuf_str0_diff0.436462.png","response":"arrowleft","screen":"Trial","block":"Delboeuf","correct_response":"arrowleft","trial_type":"image-keyboard-response","trial_index":112,"time_elapsed":140534,"internal_node_id":"0.0-3.0-2.0-1.53","participant_id":"02wkma28n5","prestimulus_duration":977,"correct":true,"type":"Delboeuf","illusion_strength":0,"illusion_difference":0.43646153846153846,"block_number":1,"trial_number":54},{"rt":null,"stimulus":"<div style=\"font-size:60px;\">+</div>","response":null,"screen":"fixation","trial_type":"html-keyboard-response","trial_index":113,"time_elapsed":141051,"internal_node_id":"0.0-3.0-2.0-0.54","participant_id":"02wkma28n5","trial_duration":510},{"rt":597,"stimulus":"stimuli/Delboeuf_str0_diff1.0.png","response":"arrowleft","screen":"Trial","block":"Delboeuf","correct_response":"arrowleft","trial_type":"image-keyboard-response","trial_index":114,"time_elapsed":141662,"internal_node_id":"0.0-3.0-2.0-1.54","participant_id":"02wkma28n5","prestimulus_duration":517,"correct":true,"type":"Delboeuf","illusion_strength":0,"illusion_difference":1,"block_number":1,"trial_number":55},{"rt":null,"stimulus":"<div style=\"font-size:60px;\">+</div>","response":null,"screen":"fixation","trial_type":"html-keyboard-response","trial_index":115,"time_elapsed":142294,"internal_node_id":"0.0-3.0-2.0-0.55","participant_id":"02wkma28n5","trial_duration":628},{"rt":2350,"stimulus":"stimuli/Delboeuf_str0_diff0.359615.png","response":"arrowleft","screen":"Trial","block":"Delboeuf","correct_response":"arrowleft","trial_type":"image-keyboard-response","trial_index":116,"time_elapsed":144658,"internal_node_id":"0.0-3.0-2.0-1.55","participant_id":"02wkma28n5","prestimulus_duration":632,"correct":true,"type":"Delboeuf","illusion_strength":0,"illusion_difference":0.3596153846153846,"block_number":1,"trial_number":56},{"rt":null,"stimulus":"<div style=\"font-size:60px;\">+</div>","response":null,"screen":"fixation","trial_type":"html-keyboard-response","trial_index":117,"time_elapsed":145512,"internal_node_id":"0.0-3.0-2.0-0.56","participant_id":"02wkma28n5","trial_duration":848},{"rt":767,"stimulus":"stimuli/Delboeuf_str0_diff-0.436462.png","response":"arrowright","screen":"Trial","block":"Delboeuf","correct_response":"arrowright","trial_type":"image-keyboard-response","trial_index":118,"time_elapsed":146294,"internal_node_id":"0.0-3.0-2.0-1.56","participant_id":"02wkma28n5","prestimulus_duration":854,"correct":true,"type":"Delboeuf","illusion_strength":0,"illusion_difference":-0.43646153846153846,"block_number":1,"trial_number":57},{"rt":null,"stimulus":"<div style=\"font-size:60px;\">+</div>","response":null,"screen":"fixation","trial_type":"html-keyboard-response","trial_index":119,"time_elapsed":146815,"internal_node_id":"0.0-3.0-2.0-0.57","participant_id":"02wkma28n5","trial_duration":521},{"rt":2897,"stimulus":"stimuli/Delboeuf_str0_diff0.129077.png","response":"arrowleft","screen":"Trial","block":"Delboeuf","correct_response":"arrowleft","trial_type":"image-keyboard-response","trial_index":120,"time_elapsed":149725,"internal_node_id":"0.0-3.0-2.0-1.57","participant_id":"02wkma28n5","prestimulus_duration":521,"correct":true,"type":"Delboeuf","illusion_strength":0,"illusion_difference":0.1290769230769231,"block_number":1,"trial_number":58},{"rt":null,"stimulus":"<div style=\"font-size:60px;\">+</div>","response":null,"screen":"fixation","trial_type":"html-keyboard-response","trial_index":121,"time_elapsed":150471,"internal_node_id":"0.0-3.0-2.0-0.58","participant_id":"02wkma28n5","trial_duration":740},{"rt":521,"stimulus":"stimuli/Delboeuf_str0_diff-0.769462.png","response":"arrowright","screen":"Trial","block":"Delboeuf","correct_response":"arrowright","trial_type":"image-keyboard-response","trial_index":122,"time_elapsed":151005,"internal_node_id":"0.0-3.0-2.0-1.58","participant_id":"02wkma28n5","prestimulus_duration":746,"correct":true,"type":"Delboeuf","illusion_strength":0,"illusion_difference":-0.7694615384615385,"block_number":1,"trial_number":59},{"rt":null,"stimulus":"<div style=\"font-size:60px;\">+</div>","response":null,"screen":"fixation","trial_type":"html-keyboard-response","trial_index":123,"time_elapsed":151826,"internal_node_id":"0.0-3.0-2.0-0.59","participant_id":"02wkma28n5","trial_duration":819},{"rt":571,"stimulus":"stimuli/Delboeuf_str0_diff0.743846.png","response":"arrowleft","screen":"Trial","block":"Delboeuf","correct_response":"arrowleft","trial_type":"image-keyboard-response","trial_index":124,"time_elapsed":152411,"internal_node_id":"0.0-3.0-2.0-1.59","participant_id":"02wkma28n5","prestimulus_duration":821,"correct":true,"type":"Delboeuf","illusion_strength":0,"illusion_difference":0.7438461538461538,"block_number":1,"trial_number":60},{"rt":null,"stimulus":"<div style=\"font-size:60px;\">+</div>","response":null,"screen":"fixation","trial_type":"html-keyboard-response","trial_index":125,"time_elapsed":153354,"internal_node_id":"0.0-3.0-2.0-0.60","participant_id":"02wkma28n5","trial_duration":940},{"rt":755,"stimulus":"stimuli/Delboeuf_str0_diff0.487692.png","response":"arrowleft","screen":"Trial","block":"Delboeuf","correct_response":"arrowleft","trial_type":"image-keyboard-response","trial_index":126,"time_elapsed":154123,"internal_node_id":"0.0-3.0-2.0-1.60","participant_id":"02wkma28n5","prestimulus_duration":943,"correct":true,"type":"Delboeuf","illusion_strength":0,"illusion_difference":0.4876923076923077,"block_number":1,"trial_number":61},{"rt":null,"stimulus":"<div style=\"font-size:60px;\">+</div>","response":null,"screen":"fixation","trial_type":"html-keyboard-response","trial_index":127,"time_elapsed":154637,"internal_node_id":"0.0-3.0-2.0-0.61","participant_id":"02wkma28n5","trial_duration":510},{"rt":1196,"stimulus":"stimuli/Delboeuf_str0_diff0.308385.png","response":"arrowleft","screen":"Trial","block":"Delboeuf","correct_response":"arrowleft","trial_type":"image-keyboard-response","trial_index":128,"time_elapsed":155845,"internal_node_id":"0.0-3.0-2.0-1.61","participant_id":"02wkma28n5","prestimulus_duration":514,"correct":true,"type":"Delboeuf","illusion_strength":0,"illusion_difference":0.30838461538461537,"block_number":1,"trial_number":62},{"rt":null,"stimulus":"<div style=\"font-size:60px;\">+</div>","response":null,"screen":"fixation","trial_type":"html-keyboard-response","trial_index":129,"time_elapsed":156742,"internal_node_id":"0.0-3.0-2.0-0.62","participant_id":"02wkma28n5","trial_duration":890},{"rt":1002,"stimulus":"stimuli/Delboeuf_str0_diff0.513308.png","response":"arrowleft","screen":"Trial","block":"Delboeuf","correct_response":"arrowleft","trial_type":"image-keyboard-response","trial_index":130,"time_elapsed":157757,"internal_node_id":"0.0-3.0-2.0-1.62","participant_id":"02wkma28n5","prestimulus_duration":897,"correct":true,"type":"Delboeuf","illusion_strength":0,"illusion_difference":0.5133076923076924,"block_number":1,"trial_number":63},{"rt":null,"stimulus":"<div style=\"font-size:60px;\">+</div>","response":null,"screen":"fixation","trial_type":"html-keyboard-response","trial_index":131,"time_elapsed":158561,"internal_node_id":"0.0-3.0-2.0-0.63","participant_id":"02wkma28n5","trial_duration":801},{"rt":563,"stimulus":"stimuli/Delboeuf_str0_diff0.641385.png","response":"arrowleft","screen":"Trial","block":"Delboeuf","correct_response":"arrowleft","trial_type":"image-keyboard-response","trial_index":132,"time_elapsed":159138,"internal_node_id":"0.0-3.0-2.0-1.63","participant_id":"02wkma28n5","prestimulus_duration":804,"correct":true,"type":"Delboeuf","illusion_strength":0,"illusion_difference":0.6413846153846154,"block_number":1,"trial_number":64},{"rt":null,"stimulus":"<div style=\"font-size:60px;\">+</div>","response":null,"screen":"fixation","trial_type":"html-keyboard-response","trial_index":133,"time_elapsed":160094,"internal_node_id":"0.0-3.0-2.0-0.64","participant_id":"02wkma28n5","trial_duration":950},{"rt":2053,"stimulus":"stimuli/Delboeuf_str0_diff-0.410846.png","response":"arrowright","screen":"Trial","block":"Delboeuf","correct_response":"arrowright","trial_type":"image-keyboard-response","trial_index":134,"time_elapsed":162161,"internal_node_id":"0.0-3.0-2.0-1.64","participant_id":"02wkma28n5","prestimulus_duration":956,"correct":true,"type":"Delboeuf","illusion_strength":0,"illusion_difference":-0.41084615384615386,"block_number":1,"trial_number":65},{"rt":null,"stimulus":"<div style=\"font-size:60px;\">+</div>","response":null,"screen":"fixation","trial_type":"html-keyboard-response","trial_index":135,"time_elapsed":162794,"internal_node_id":"0.0-3.0-2.0-0.65","participant_id":"02wkma28n5","trial_duration":630},{"rt":500,"stimulus":"stimuli/Delboeuf_str0_diff0.334.png","response":"arrowleft","screen":"Trial","block":"Delboeuf","correct_response":"arrowleft","trial_type":"image-keyboard-response","trial_index":136,"time_elapsed":163307,"internal_node_id":"0.0-3.0-2.0-1.65","participant_id":"02wkma28n5","prestimulus_duration":633,"correct":true,"type":"Delboeuf","illusion_strength":0,"illusion_difference":0.334,"block_number":1,"trial_number":66},{"rt":null,"stimulus":"<div style=\"font-size:60px;\">+</div>","response":null,"screen":"fixation","trial_type":"html-keyboard-response","trial_index":137,"time_elapsed":163990,"internal_node_id":"0.0-3.0-2.0-0.66","participant_id":"02wkma28n5","trial_duration":677},{"rt":411,"stimulus":"stimuli/Delboeuf_str0_diff-0.282769.png","response":"arrowright","screen":"Trial","block":"Delboeuf","correct_response":"arrowright","trial_type":"image-keyboard-response","trial_index":138,"time_elapsed":164414,"internal_node_id":"0.0-3.0-2.0-1.66","participant_id":"02wkma28n5","prestimulus_duration":683,"correct":true,"type":"Delboeuf","illusion_strength":0,"illusion_difference":-0.2827692307692308,"block_number":1,"trial_number":67},{"rt":null,"stimulus":"<div style=\"font-size:60px;\">+</div>","response":null,"screen":"fixation","trial_type":"html-keyboard-response","trial_index":139,"time_elapsed":165046,"internal_node_id":"0.0-3.0-2.0-0.67","participant_id":"02wkma28n5","trial_duration":625},{"rt":539,"stimulus":"stimuli/Delboeuf_str0_diff-0.641385.png","response":"arrowright","screen":"Trial","block":"Delboeuf","correct_response":"arrowright","trial_type":"image-keyboard-response","trial_index":140,"time_elapsed":165599,"internal_node_id":"0.0-3.0-2.0-1.67","participant_id":"02wkma28n5","prestimulus_duration":632,"correct":true,"type":"Delboeuf","illusion_strength":0,"illusion_difference":-0.6413846153846154,"block_number":1,"trial_number":68},{"rt":null,"stimulus":"<div style=\"font-size:60px;\">+</div>","response":null,"screen":"fixation","trial_type":"html-keyboard-response","trial_index":141,"time_elapsed":166232,"internal_node_id":"0.0-3.0-2.0-0.68","participant_id":"02wkma28n5","trial_duration":628},{"rt":530,"stimulus":"stimuli/Delboeuf_str0_diff0.718231.png","response":"arrowleft","screen":"Trial","block":"Delboeuf","correct_response":"arrowleft","trial_type":"image-keyboard-response","trial_index":142,"time_elapsed":166776,"internal_node_id":"0.0-3.0-2.0-1.68","participant_id":"02wkma28n5","prestimulus_duration":633,"correct":true,"type":"Delboeuf","illusion_strength":0,"illusion_difference":0.7182307692307692,"block_number":1,"trial_number":69},{"rt":null,"stimulus":"<div style=\"font-size:60px;\">+</div>","response":null,"screen":"fixation","trial_type":"html-keyboard-response","trial_index":143,"time_elapsed":167479,"internal_node_id":"0.0-3.0-2.0-0.69","participant_id":"02wkma28n5","trial_duration":697},{"rt":654,"stimulus":"stimuli/Delboeuf_str0_diff0.205923.png","response":"arrowright","screen":"Trial","block":"Delboeuf","correct_response":"arrowleft","trial_type":"image-keyboard-response","trial_index":144,"time_elapsed":168147,"internal_node_id":"0.0-3.0-2.0-1.69","participant_id":"02wkma28n5","prestimulus_duration":703,"correct":false,"type":"Delboeuf","illusion_strength":0,"illusion_difference":0.20592307692307693,"block_number":1,"trial_number":70},{"rt":null,"stimulus":"<div style=\"font-size:60px;\">+</div>","response":null,"screen":"fixation","trial_type":"html-keyboard-response","trial_index":145,"time_elapsed":169104,"internal_node_id":"0.0-3.0-2.0-0.70","participant_id":"02wkma28n5","trial_duration":953},{"rt":536,"stimulus":"stimuli/Delboeuf_str0_diff0.462077.png","response":"arrowleft","screen":"Trial","block":"Delboeuf","correct_response":"arrowleft","trial_type":"image-keyboard-response","trial_index":146,"time_elapsed":169652,"internal_node_id":"0.0-3.0-2.0-1.70","participant_id":"02wkma28n5","prestimulus_duration":957,"correct":true,"type":"Delboeuf","illusion_strength":0,"illusion_difference":0.4620769230769231,"block_number":1,"trial_number":71},{"rt":null,"stimulus":"<div style=\"font-size:60px;\">+</div>","response":null,"screen":"fixation","trial_type":"html-keyboard-response","trial_index":147,"time_elapsed":170233,"internal_node_id":"0.0-3.0-2.0-0.71","participant_id":"02wkma28n5","trial_duration":576},{"rt":486,"stimulus":"stimuli/Delboeuf_str0_diff0.846308.png","response":"arrowleft","screen":"Trial","block":"Delboeuf","correct_response":"arrowleft","trial_type":"image-keyboard-response","trial_index":148,"time_elapsed":170734,"internal_node_id":"0.0-3.0-2.0-1.71","participant_id":"02wkma28n5","prestimulus_duration":581,"correct":true,"type":"Delboeuf","illusion_strength":0,"illusion_difference":0.8463076923076923,"block_number":1,"trial_number":72},{"rt":null,"stimulus":"<div style=\"font-size:60px;\">+</div>","response":null,"screen":"fixation","trial_type":"html-keyboard-response","trial_index":149,"time_elapsed":171385,"internal_node_id":"0.0-3.0-2.0-0.72","participant_id":"02wkma28n5","trial_duration":645},{"rt":1437,"stimulus":"stimuli/Delboeuf_str0_diff0.001.png","response":"arrowright","screen":"Trial","block":"Delboeuf","correct_response":"arrowleft","trial_type":"image-keyboard-response","trial_index":150,"time_elapsed":172837,"internal_node_id":"0.0-3.0-2.0-1.72","participant_id":"02wkma28n5","prestimulus_duration":651,"correct":false,"type":"Delboeuf","illusion_strength":0,"illusion_difference":0.001,"block_number":1,"trial_number":73},{"rt":null,"stimulus":"<div style=\"font-size:60px;\">+</div>","response":null,"screen":"fixation","trial_type":"html-keyboard-response","trial_index":151,"time_elapsed":173565,"internal_node_id":"0.0-3.0-2.0-0.73","participant_id":"02wkma28n5","trial_duration":721},{"rt":678,"stimulus":"stimuli/Delboeuf_str0_diff0.103462.png","response":"arrowright","screen":"Trial","block":"Delboeuf","correct_response":"arrowleft","trial_type":"image-keyboard-response","trial_index":152,"time_elapsed":174258,"internal_node_id":"0.0-3.0-2.0-1.73","participant_id":"02wkma28n5","prestimulus_duration":728,"correct":false,"type":"Delboeuf","illusion_strength":0,"illusion_difference":0.10346153846153847,"block_number":1,"trial_number":74},{"rt":null,"stimulus":"<div style=\"font-size:60px;\">+</div>","response":null,"screen":"fixation","trial_type":"html-keyboard-response","trial_index":153,"time_elapsed":175034,"internal_node_id":"0.0-3.0-2.0-0.74","participant_id":"02wkma28n5","trial_duration":769},{"rt":566,"stimulus":"stimuli/Delboeuf_str0_diff-0.795077.png","response":"arrowright","screen":"Trial","block":"Delboeuf","correct_response":"arrowright","trial_type":"image-keyboard-response","trial_index":154,"time_elapsed":175609,"internal_node_id":"0.0-3.0-2.0-1.74","participant_id":"02wkma28n5","prestimulus_duration":776,"correct":true,"type":"Delboeuf","illusion_strength":0,"illusion_difference":-0.7950769230769231,"block_number":1,"trial_number":75},{"rt":null,"stimulus":"<div style=\"font-size:60px;\">+</div>","response":null,"screen":"fixation","trial_type":"html-keyboard-response","trial_index":155,"time_elapsed":176335,"internal_node_id":"0.0-3.0-2.0-0.75","participant_id":"02wkma28n5","trial_duration":719},{"rt":715,"stimulus":"stimuli/Delboeuf_str0_diff0.769462.png","response":"arrowleft","screen":"Trial","block":"Delboeuf","correct_response":"arrowleft","trial_type":"image-keyboard-response","trial_index":156,"time_elapsed":177063,"internal_node_id":"0.0-3.0-2.0-1.75","participant_id":"02wkma28n5","prestimulus_duration":726,"correct":true,"type":"Delboeuf","illusion_strength":0,"illusion_difference":0.7694615384615385,"block_number":1,"trial_number":76},{"rt":null,"stimulus":"<div style=\"font-size:60px;\">+</div>","response":null,"screen":"fixation","trial_type":"html-keyboard-response","trial_index":157,"time_elapsed":177995,"internal_node_id":"0.0-3.0-2.0-0.76","participant_id":"02wkma28n5","trial_duration":929},{"rt":633,"stimulus":"stimuli/Delboeuf_str0_diff0.538923.png","response":"arrowleft","screen":"Trial","block":"Delboeuf","correct_response":"arrowleft","trial_type":"image-keyboard-response","trial_index":158,"time_elapsed":178641,"internal_node_id":"0.0-3.0-2.0-1.76","participant_id":"02wkma28n5","prestimulus_duration":932,"correct":true,"type":"Delboeuf","illusion_strength":0,"illusion_difference":0.538923076923077,"block_number":1,"trial_number":77},{"rt":null,"stimulus":"<div style=\"font-size:60px;\">+</div>","response":null,"screen":"fixation","trial_type":"html-keyboard-response","trial_index":159,"time_elapsed":179508,"internal_node_id":"0.0-3.0-2.0-0.77","participant_id":"02wkma28n5","trial_duration":861},{"rt":595,"stimulus":"stimuli/Delboeuf_str0_diff-0.103462.png","response":"arrowright","screen":"Trial","block":"Delboeuf","correct_response":"arrowright","trial_type":"image-keyboard-response","trial_index":160,"time_elapsed":180117,"internal_node_id":"0.0-3.0-2.0-1.77","participant_id":"02wkma28n5","prestimulus_duration":867,"correct":true,"type":"Delboeuf","illusion_strength":0,"illusion_difference":-0.10346153846153847,"block_number":1,"trial_number":78},{"rt":null,"stimulus":"<div style=\"font-size:60px;\">+</div>","response":null,"screen":"fixation","trial_type":"html-keyboard-response","trial_index":161,"time_elapsed":180956,"internal_node_id":"0.0-3.0-2.0-0.78","participant_id":"02wkma28n5","trial_duration":832},{"rt":1161,"stimulus":"stimuli/Delboeuf_str0_diff0.282769.png","response":"arrowleft","screen":"Trial","block":"Delboeuf","correct_response":"arrowleft","trial_type":"image-keyboard-response","trial_index":162,"time_elapsed":182131,"internal_node_id":"0.0-3.0-2.0-1.78","participant_id":"02wkma28n5","prestimulus_duration":839,"correct":true,"type":"Delboeuf","illusion_strength":0,"illusion_difference":0.2827692307692308,"block_number":1,"trial_number":79},{"rt":null,"stimulus":"<div style=\"font-size:60px;\">+</div>","response":null,"screen":"fixation","trial_type":"html-keyboard-response","trial_index":163,"time_elapsed":183106,"internal_node_id":"0.0-3.0-2.0-0.79","participant_id":"02wkma28n5","trial_duration":973},{"rt":624,"stimulus":"stimuli/Delboeuf_str0_diff0.795077.png","response":"arrowleft","screen":"Trial","block":"Delboeuf","correct_response":"arrowleft","trial_type":"image-keyboard-response","trial_index":164,"time_elapsed":183743,"internal_node_id":"0.0-3.0-2.0-1.79","participant_id":"02wkma28n5","prestimulus_duration":975,"correct":true,"type":"Delboeuf","illusion_strength":0,"illusion_difference":0.7950769230769231,"block_number":1,"trial_number":80},{"rt":3037,"stimulus":"<p>Great job!</p><p>Can you do better in the next block?</p>","response":0,"screen":"block_results","trial_type":"html-button-response","trial_index":165,"time_elapsed":186783,"internal_node_id":"0.0-3.0-3.0","participant_id":"02wkma28n5"},{"success":true,"timeout":false,"failed_images":[],"failed_audio":[],"failed_video":[],"trial_type":"preload","trial_index":166,"time_elapsed":187183,"internal_node_id":"0.0-4.0-0.0","participant_id":"02wkma28n5"},{"rt":7571,"stimulus":"<p><b>Part 2</b></p><p>In this part, two horizontal red lines will appear one above the other.</p><p>Your task is to select which <b>line is longer</b> in length as fast as you can, without making errors.</p><p>Press <b>the UP or the DOWN arrow</b> to indicate where is the longer <b>red line.</b></p><div style='float: center'><img src='utils/stimuli_demo/MullerLyer_Demo.png' height='300'></img><p><img src='utils/answer/answer_updown_keyboard.PNG' height='150'></img></p><p class='small'>In this example, the correct answer is the <b>UP arrow</b>.</p></div><p>Are you ready? <b>Press ENTER to start</b></p>","response":"enter","trial_type":"html-keyboard-response","trial_index":167,"time_elapsed":194755,"internal_node_id":"0.0-4.0-1.0","participant_id":"02wkma28n5"},{"rt":null,"stimulus":"<div style=\"font-size:60px;\">+</div>","response":null,"screen":"fixation","trial_type":"html-keyboard-response","trial_index":168,"time_elapsed":196131,"internal_node_id":"0.0-4.0-2.0-0.0","participant_id":"02wkma28n5","trial_duration":869},{"rt":922,"stimulus":"stimuli/MullerLyer_str0_diff-0.307.png","response":"arrowdown","screen":"Trial","block":"MullerLyer","correct_response":"arrowdown","trial_type":"image-keyboard-response","trial_index":169,"time_elapsed":197065,"internal_node_id":"0.0-4.0-2.0-1.0","participant_id":"02wkma28n5","prestimulus_duration":1376,"correct":true,"type":"MullerLyer","illusion_strength":0,"illusion_difference":-0.307,"block_number":2,"trial_number":1},{"rt":null,"stimulus":"<div style=\"font-size:60px;\">+</div>","response":null,"screen":"fixation","trial_type":"html-keyboard-response","trial_index":170,"time_elapsed":197602,"internal_node_id":"0.0-4.0-2.0-0.1","participant_id":"02wkma28n5","trial_duration":535},{"rt":601,"stimulus":"stimuli/MullerLyer_str0_diff0.365846.png","response":"arrowup","screen":"Trial","block":"MullerLyer","correct_response":"arrowup","trial_type":"image-keyboard-response","trial_index":171,"time_elapsed":198212,"internal_node_id":"0.0-4.0-2.0-1.1","participant_id":"02wkma28n5","prestimulus_duration":537,"correct":true,"type":"MullerLyer","illusion_strength":0,"illusion_difference":0.3658461538461539,"block_number":2,"trial_number":2},{"rt":null,"stimulus":"<div style=\"font-size:60px;\">+</div>","response":null,"screen":"fixation","trial_type":"html-keyboard-response","trial_index":172,"time_elapsed":199217,"internal_node_id":"0.0-4.0-2.0-0.2","participant_id":"02wkma28n5","trial_duration":997},{"rt":660,"stimulus":"stimuli/MullerLyer_str0_diff0.389385.png","response":"arrowup","screen":"Trial","block":"MullerLyer","correct_response":"arrowup","trial_type":"image-keyboard-response","trial_index":173,"time_elapsed":199891,"internal_node_id":"0.0-4.0-2.0-1.2","participant_id":"02wkma28n5","prestimulus_duration":1005,"correct":true,"type":"MullerLyer","illusion_strength":0,"illusion_difference":0.3893846153846154,"block_number":2,"trial_number":3},{"rt":null,"stimulus":"<div style=\"font-size:60px;\">+</div>","response":null,"screen":"fixation","trial_type":"html-keyboard-response","trial_index":174,"time_elapsed":200463,"internal_node_id":"0.0-4.0-2.0-0.3","participant_id":"02wkma28n5","trial_duration":571},{"rt":1893,"stimulus":"stimuli/MullerLyer_str0_diff-0.436462.png","response":"arrowdown","screen":"Trial","block":"MullerLyer","correct_response":"arrowdown","trial_type":"image-keyboard-response","trial_index":175,"time_elapsed":202370,"internal_node_id":"0.0-4.0-2.0-1.3","participant_id":"02wkma28n5","prestimulus_duration":572,"correct":true,"type":"MullerLyer","illusion_strength":0,"illusion_difference":-0.43646153846153846,"block_number":2,"trial_number":4},{"rt":null,"stimulus":"<div style=\"font-size:60px;\">+</div>","response":null,"screen":"fixation","trial_type":"html-keyboard-response","trial_index":176,"time_elapsed":202952,"internal_node_id":"0.0-4.0-2.0-0.4","participant_id":"02wkma28n5","trial_duration":577},{"rt":580,"stimulus":"stimuli/MullerLyer_str0_diff0.46.png","response":"arrowup","screen":"Trial","block":"MullerLyer","correct_response":"arrowup","trial_type":"image-keyboard-response","trial_index":177,"time_elapsed":203545,"internal_node_id":"0.0-4.0-2.0-1.4","participant_id":"02wkma28n5","prestimulus_duration":582,"correct":true,"type":"MullerLyer","illusion_strength":0,"illusion_difference":0.46,"block_number":2,"trial_number":5},{"rt":null,"stimulus":"<div style=\"font-size:60px;\">+</div>","response":null,"screen":"fixation","trial_type":"html-keyboard-response","trial_index":178,"time_elapsed":204513,"internal_node_id":"0.0-4.0-2.0-0.5","participant_id":"02wkma28n5","trial_duration":962},{"rt":972,"stimulus":"stimuli/MullerLyer_str0_diff0.083385.png","response":"arrowup","screen":"Trial","block":"MullerLyer","correct_response":"arrowup","trial_type":"image-keyboard-response","trial_index":179,"time_elapsed":205498,"internal_node_id":"0.0-4.0-2.0-1.5","participant_id":"02wkma28n5","prestimulus_duration":968,"correct":true,"type":"MullerLyer","illusion_strength":0,"illusion_difference":0.08338461538461539,"block_number":2,"trial_number":6},{"rt":null,"stimulus":"<div style=\"font-size:60px;\">+</div>","response":null,"screen":"fixation","trial_type":"html-keyboard-response","trial_index":180,"time_elapsed":206133,"internal_node_id":"0.0-4.0-2.0-0.6","participant_id":"02wkma28n5","trial_duration":633},{"rt":885,"stimulus":"stimuli/MullerLyer_str0_diff0.059846.png","response":"arrowup","screen":"Trial","block":"MullerLyer","correct_response":"arrowup","trial_type":"image-keyboard-response","trial_index":181,"time_elapsed":207031,"internal_node_id":"0.0-4.0-2.0-1.6","participant_id":"02wkma28n5","prestimulus_duration":635,"correct":true,"type":"MullerLyer","illusion_strength":0,"illusion_difference":0.05984615384615385,"block_number":2,"trial_number":7},{"rt":null,"stimulus":"<div style=\"font-size:60px;\">+</div>","response":null,"screen":"fixation","trial_type":"html-keyboard-response","trial_index":182,"time_elapsed":207605,"internal_node_id":"0.0-4.0-2.0-0.7","participant_id":"02wkma28n5","trial_duration":570},{"rt":448,"stimulus":"stimuli/MullerLyer_str0_diff0.118692.png","response":"arrowup","screen":"Trial","block":"MullerLyer","correct_response":"arrowup","trial_type":"image-keyboard-response","trial_index":183,"time_elapsed":208068,"internal_node_id":"0.0-4.0-2.0-1.7","participant_id":"02wkma28n5","prestimulus_duration":574,"correct":true,"type":"MullerLyer","illusion_strength":0,"illusion_difference":0.1186923076923077,"block_number":2,"trial_number":8},{"rt":null,"stimulus":"<div style=\"font-size:60px;\">+</div>","response":null,"screen":"fixation","trial_type":"html-keyboard-response","trial_index":184,"time_elapsed":208994,"internal_node_id":"0.0-4.0-2.0-0.8","participant_id":"02wkma28n5","trial_duration":924},{"rt":505,"stimulus":"stimuli/MullerLyer_str0_diff-0.377615.png","response":"arrowup","screen":"Trial","block":"MullerLyer","correct_response":"arrowdown","trial_type":"image-keyboard-response","trial_index":185,"time_elapsed":209512,"internal_node_id":"0.0-4.0-2.0-1.8","participant_id":"02wkma28n5","prestimulus_duration":926,"correct":false,"type":"MullerLyer","illusion_strength":0,"illusion_difference":-0.37761538461538463,"block_number":2,"trial_number":9},{"rt":null,"stimulus":"<div style=\"font-size:60px;\">+</div>","response":null,"screen":"fixation","trial_type":"html-keyboard-response","trial_index":186,"time_elapsed":210469,"internal_node_id":"0.0-4.0-2.0-0.9","participant_id":"02wkma28n5","trial_duration":951},{"rt":638,"stimulus":"stimuli/MullerLyer_str0_diff-0.271692.png","response":"arrowdown","screen":"Trial","block":"MullerLyer","correct_response":"arrowdown","trial_type":"image-keyboard-response","trial_index":187,"time_elapsed":211120,"internal_node_id":"0.0-4.0-2.0-1.9","participant_id":"02wkma28n5","prestimulus_duration":957,"correct":true,"type":"MullerLyer","illusion_strength":0,"illusion_difference":-0.2716923076923077,"block_number":2,"trial_number":10},{"rt":null,"stimulus":"<div style=\"font-size:60px;\">+</div>","response":null,"screen":"fixation","trial_type":"html-keyboard-response","trial_index":188,"time_elapsed":211786,"internal_node_id":"0.0-4.0-2.0-0.10","participant_id":"02wkma28n5","trial_duration":662},{"rt":548,"stimulus":"stimuli/MullerLyer_str0_diff0.448231.png","response":"arrowup","screen":"Trial","block":"MullerLyer","correct_response":"arrowup","trial_type":"image-keyboard-response","trial_index":189,"time_elapsed":212345,"internal_node_id":"0.0-4.0-2.0-1.10","participant_id":"02wkma28n5","prestimulus_duration":666,"correct":true,"type":"MullerLyer","illusion_strength":0,"illusion_difference":0.44823076923076927,"block_number":2,"trial_number":11},{"rt":null,"stimulus":"<div style=\"font-size:60px;\">+</div>","response":null,"screen":"fixation","trial_type":"html-keyboard-response","trial_index":190,"time_elapsed":213003,"internal_node_id":"0.0-4.0-2.0-0.11","participant_id":"02wkma28n5","trial_duration":655},{"rt":775,"stimulus":"stimuli/MullerLyer_str0_diff0.307.png","response":"arrowup","screen":"Trial","block":"MullerLyer","correct_response":"arrowup","trial_type":"image-keyboard-response","trial_index":191,"time_elapsed":213792,"internal_node_id":"0.0-4.0-2.0-1.11","participant_id":"02wkma28n5","prestimulus_duration":658,"correct":true,"type":"MullerLyer","illusion_strength":0,"illusion_difference":0.307,"block_number":2,"trial_number":12},{"rt":null,"stimulus":"<div style=\"font-size:60px;\">+</div>","response":null,"screen":"fixation","trial_type":"html-keyboard-response","trial_index":192,"time_elapsed":214694,"internal_node_id":"0.0-4.0-2.0-0.12","participant_id":"02wkma28n5","trial_duration":899},{"rt":612,"stimulus":"stimuli/MullerLyer_str0_diff-0.154.png","response":"arrowdown","screen":"Trial","block":"MullerLyer","correct_response":"arrowdown","trial_type":"image-keyboard-response","trial_index":193,"time_elapsed":215320,"internal_node_id":"0.0-4.0-2.0-1.12","participant_id":"02wkma28n5","prestimulus_duration":902,"correct":true,"type":"MullerLyer","illusion_strength":0,"illusion_difference":-0.154,"block_number":2,"trial_number":13},{"rt":null,"stimulus":"<div style=\"font-size:60px;\">+</div>","response":null,"screen":"fixation","trial_type":"html-keyboard-response","trial_index":194,"time_elapsed":215957,"internal_node_id":"0.0-4.0-2.0-0.13","participant_id":"02wkma28n5","trial_duration":636},{"rt":1038,"stimulus":"stimuli/MullerLyer_str0_diff-0.248154.png","response":"arrowdown","screen":"Trial","block":"MullerLyer","correct_response":"arrowdown","trial_type":"image-keyboard-response","trial_index":195,"time_elapsed":217009,"internal_node_id":"0.0-4.0-2.0-1.13","participant_id":"02wkma28n5","prestimulus_duration":637,"correct":true,"type":"MullerLyer","illusion_strength":0,"illusion_difference":-0.24815384615384617,"block_number":2,"trial_number":14},{"rt":null,"stimulus":"<div style=\"font-size:60px;\">+</div>","response":null,"screen":"fixation","trial_type":"html-keyboard-response","trial_index":196,"time_elapsed":217686,"internal_node_id":"0.0-4.0-2.0-0.14","participant_id":"02wkma28n5","trial_duration":671},{"rt":791,"stimulus":"stimuli/MullerLyer_str0_diff-0.024538.png","response":"arrowup","screen":"Trial","block":"MullerLyer","correct_response":"arrowdown","trial_type":"image-keyboard-response","trial_index":197,"time_elapsed":218492,"internal_node_id":"0.0-4.0-2.0-1.14","participant_id":"02wkma28n5","prestimulus_duration":677,"correct":false,"type":"MullerLyer","illusion_strength":0,"illusion_difference":-0.02453846153846154,"block_number":2,"trial_number":15},{"rt":null,"stimulus":"<div style=\"font-size:60px;\">+</div>","response":null,"screen":"fixation","trial_type":"html-keyboard-response","trial_index":198,"time_elapsed":219378,"internal_node_id":"0.0-4.0-2.0-0.15","participant_id":"02wkma28n5","trial_duration":884},{"rt":560,"stimulus":"stimuli/MullerLyer_str0_diff0.106923.png","response":"arrowup","screen":"Trial","block":"MullerLyer","correct_response":"arrowup","trial_type":"image-keyboard-response","trial_index":199,"time_elapsed":219952,"internal_node_id":"0.0-4.0-2.0-1.15","participant_id":"02wkma28n5","prestimulus_duration":886,"correct":true,"type":"MullerLyer","illusion_strength":0,"illusion_difference":0.10692307692307693,"block_number":2,"trial_number":16},{"rt":null,"stimulus":"<div style=\"font-size:60px;\">+</div>","response":null,"screen":"fixation","trial_type":"html-keyboard-response","trial_index":200,"time_elapsed":220485,"internal_node_id":"0.0-4.0-2.0-0.16","participant_id":"02wkma28n5","trial_duration":528},{"rt":575,"stimulus":"stimuli/MullerLyer_str0_diff0.248154.png","response":"arrowup","screen":"Trial","block":"MullerLyer","correct_response":"arrowup","trial_type":"image-keyboard-response","trial_index":201,"time_elapsed":221074,"internal_node_id":"0.0-4.0-2.0-1.16","participant_id":"02wkma28n5","prestimulus_duration":533,"correct":true,"type":"MullerLyer","illusion_strength":0,"illusion_difference":0.24815384615384617,"block_number":2,"trial_number":17},{"rt":null,"stimulus":"<div style=\"font-size:60px;\">+</div>","response":null,"screen":"fixation","trial_type":"html-keyboard-response","trial_index":202,"time_elapsed":221694,"internal_node_id":"0.0-4.0-2.0-0.17","participant_id":"02wkma28n5","trial_duration":617},{"rt":557,"stimulus":"stimuli/MullerLyer_str0_diff0.165769.png","response":"arrowup","screen":"Trial","block":"MullerLyer","correct_response":"arrowup","trial_type":"image-keyboard-response","trial_index":203,"time_elapsed":222266,"internal_node_id":"0.0-4.0-2.0-1.17","participant_id":"02wkma28n5","prestimulus_duration":620,"correct":true,"type":"MullerLyer","illusion_strength":0,"illusion_difference":0.16576923076923078,"block_number":2,"trial_number":18},{"rt":null,"stimulus":"<div style=\"font-size:60px;\">+</div>","response":null,"screen":"fixation","trial_type":"html-keyboard-response","trial_index":204,"time_elapsed":223195,"internal_node_id":"0.0-4.0-2.0-0.18","participant_id":"02wkma28n5","trial_duration":925},{"rt":493,"stimulus":"stimuli/MullerLyer_str0_diff0.224615.png","response":"arrowup","screen":"Trial","block":"MullerLyer","correct_response":"arrowup","trial_type":"image-keyboard-response","trial_index":205,"time_elapsed":223702,"internal_node_id":"0.0-4.0-2.0-1.18","participant_id":"02wkma28n5","prestimulus_duration":929,"correct":true,"type":"MullerLyer","illusion_strength":0,"illusion_difference":0.22461538461538463,"block_number":2,"trial_number":19},{"rt":null,"stimulus":"<div style=\"font-size:60px;\">+</div>","response":null,"screen":"fixation","trial_type":"html-keyboard-response","trial_index":206,"time_elapsed":224448,"internal_node_id":"0.0-4.0-2.0-0.19","participant_id":"02wkma28n5","trial_duration":741},{"rt":552,"stimulus":"stimuli/MullerLyer_str0_diff-0.236385.png","response":"arrowdown","screen":"Trial","block":"MullerLyer","correct_response":"arrowdown","trial_type":"image-keyboard-response","trial_index":207,"time_elapsed":225014,"internal_node_id":"0.0-4.0-2.0-1.19","participant_id":"02wkma28n5","prestimulus_duration":746,"correct":true,"type":"MullerLyer","illusion_strength":0,"illusion_difference":-0.2363846153846154,"block_number":2,"trial_number":20},{"rt":null,"stimulus":"<div style=\"font-size:60px;\">+</div>","response":null,"screen":"fixation","trial_type":"html-keyboard-response","trial_index":208,"time_elapsed":225953,"internal_node_id":"0.0-4.0-2.0-0.20","participant_id":"02wkma28n5","trial_duration":934},{"rt":732,"stimulus":"stimuli/MullerLyer_str0_diff0.024538.png","response":"arrowup","screen":"Trial","block":"MullerLyer","correct_response":"arrowup","trial_type":"image-keyboard-response","trial_index":209,"time_elapsed":226699,"internal_node_id":"0.0-4.0-2.0-1.20","participant_id":"02wkma28n5","prestimulus_duration":939,"correct":true,"type":"MullerLyer","illusion_strength":0,"illusion_difference":0.02453846153846154,"block_number":2,"trial_number":21},{"rt":null,"stimulus":"<div style=\"font-size:60px;\">+</div>","response":null,"screen":"fixation","trial_type":"html-keyboard-response","trial_index":210,"time_elapsed":227423,"internal_node_id":"0.0-4.0-2.0-0.21","participant_id":"02wkma28n5","trial_duration":718},{"rt":520,"stimulus":"stimuli/MullerLyer_str0_diff0.236385.png","response":"arrowup","screen":"Trial","block":"MullerLyer","correct_response":"arrowup","trial_type":"image-keyboard-response","trial_index":211,"time_elapsed":227957,"internal_node_id":"0.0-4.0-2.0-1.21","participant_id":"02wkma28n5","prestimulus_duration":724,"correct":true,"type":"MullerLyer","illusion_strength":0,"illusion_difference":0.2363846153846154,"block_number":2,"trial_number":22},{"rt":null,"stimulus":"<div style=\"font-size:60px;\">+</div>","response":null,"screen":"fixation","trial_type":"html-keyboard-response","trial_index":212,"time_elapsed":228534,"internal_node_id":"0.0-4.0-2.0-0.22","participant_id":"02wkma28n5","trial_duration":576},{"rt":573,"stimulus":"stimuli/MullerLyer_str0_diff0.436462.png","response":"arrowup","screen":"Trial","block":"MullerLyer","correct_response":"arrowup","trial_type":"image-keyboard-response","trial_index":213,"time_elapsed":229121,"internal_node_id":"0.0-4.0-2.0-1.22","participant_id":"02wkma28n5","prestimulus_duration":577,"correct":true,"type":"MullerLyer","illusion_strength":0,"illusion_difference":0.43646153846153846,"block_number":2,"trial_number":23},{"rt":null,"stimulus":"<div style=\"font-size:60px;\">+</div>","response":null,"screen":"fixation","trial_type":"html-keyboard-response","trial_index":214,"time_elapsed":229928,"internal_node_id":"0.0-4.0-2.0-0.23","participant_id":"02wkma28n5","trial_duration":802},{"rt":600,"stimulus":"stimuli/MullerLyer_str0_diff0.001.png","response":"arrowdown","screen":"Trial","block":"MullerLyer","correct_response":"arrowup","trial_type":"image-keyboard-response","trial_index":215,"time_elapsed":230541,"internal_node_id":"0.0-4.0-2.0-1.23","participant_id":"02wkma28n5","prestimulus_duration":807,"correct":false,"type":"MullerLyer","illusion_strength":0,"illusion_difference":0.001,"block_number":2,"trial_number":24},{"rt":null,"stimulus":"<div style=\"font-size:60px;\">+</div>","response":null,"screen":"fixation","trial_type":"html-keyboard-response","trial_index":216,"time_elapsed":231143,"internal_node_id":"0.0-4.0-2.0-0.24","participant_id":"02wkma28n5","trial_duration":597},{"rt":1080,"stimulus":"stimuli/MullerLyer_str0_diff-0.012769.png","response":"arrowdown","screen":"Trial","block":"MullerLyer","correct_response":"arrowdown","trial_type":"image-keyboard-response","trial_index":217,"time_elapsed":232236,"internal_node_id":"0.0-4.0-2.0-1.24","participant_id":"02wkma28n5","prestimulus_duration":602,"correct":true,"type":"MullerLyer","illusion_strength":0,"illusion_difference":-0.012769230769230769,"block_number":2,"trial_number":25},{"rt":null,"stimulus":"<div style=\"font-size:60px;\">+</div>","response":null,"screen":"fixation","trial_type":"html-keyboard-response","trial_index":218,"time_elapsed":232870,"internal_node_id":"0.0-4.0-2.0-0.25","participant_id":"02wkma28n5","trial_duration":626},{"rt":539,"stimulus":"stimuli/MullerLyer_str0_diff-0.354077.png","response":"arrowdown","screen":"Trial","block":"MullerLyer","correct_response":"arrowdown","trial_type":"image-keyboard-response","trial_index":219,"time_elapsed":233423,"internal_node_id":"0.0-4.0-2.0-1.25","participant_id":"02wkma28n5","prestimulus_duration":634,"correct":true,"type":"MullerLyer","illusion_strength":0,"illusion_difference":-0.35407692307692307,"block_number":2,"trial_number":26},{"rt":null,"stimulus":"<div style=\"font-size:60px;\">+</div>","response":null,"screen":"fixation","trial_type":"html-keyboard-response","trial_index":220,"time_elapsed":234131,"internal_node_id":"0.0-4.0-2.0-0.26","participant_id":"02wkma28n5","trial_duration":702},{"rt":535,"stimulus":"stimuli/MullerLyer_str0_diff0.212846.png","response":"arrowup","screen":"Trial","block":"MullerLyer","correct_response":"arrowup","trial_type":"image-keyboard-response","trial_index":221,"time_elapsed":234677,"internal_node_id":"0.0-4.0-2.0-1.26","participant_id":"02wkma28n5","prestimulus_duration":708,"correct":true,"type":"MullerLyer","illusion_strength":0,"illusion_difference":0.21284615384615385,"block_number":2,"trial_number":27},{"rt":null,"stimulus":"<div style=\"font-size:60px;\">+</div>","response":null,"screen":"fixation","trial_type":"html-keyboard-response","trial_index":222,"time_elapsed":235673,"internal_node_id":"0.0-4.0-2.0-0.27","participant_id":"02wkma28n5","trial_duration":990},{"rt":613,"stimulus":"stimuli/MullerLyer_str0_diff-0.165769.png","response":"arrowdown","screen":"Trial","block":"MullerLyer","correct_response":"arrowdown","trial_type":"image-keyboard-response","trial_index":223,"time_elapsed":236299,"internal_node_id":"0.0-4.0-2.0-1.27","participant_id":"02wkma28n5","prestimulus_duration":996,"correct":true,"type":"MullerLyer","illusion_strength":0,"illusion_difference":-0.16576923076923078,"block_number":2,"trial_number":28},{"rt":null,"stimulus":"<div style=\"font-size:60px;\">+</div>","response":null,"screen":"fixation","trial_type":"html-keyboard-response","trial_index":224,"time_elapsed":237216,"internal_node_id":"0.0-4.0-2.0-0.28","participant_id":"02wkma28n5","trial_duration":910},{"rt":597,"stimulus":"stimuli/MullerLyer_str0_diff-0.130462.png","response":"arrowdown","screen":"Trial","block":"MullerLyer","correct_response":"arrowdown","trial_type":"image-keyboard-response","trial_index":225,"time_elapsed":237828,"internal_node_id":"0.0-4.0-2.0-1.28","participant_id":"02wkma28n5","prestimulus_duration":917,"correct":true,"type":"MullerLyer","illusion_strength":0,"illusion_difference":-0.13046153846153846,"block_number":2,"trial_number":29},{"rt":null,"stimulus":"<div style=\"font-size:60px;\">+</div>","response":null,"screen":"fixation","trial_type":"html-keyboard-response","trial_index":226,"time_elapsed":238456,"internal_node_id":"0.0-4.0-2.0-0.29","participant_id":"02wkma28n5","trial_duration":622},{"rt":644,"stimulus":"stimuli/MullerLyer_str0_diff-0.212846.png","response":"arrowdown","screen":"Trial","block":"MullerLyer","correct_response":"arrowdown","trial_type":"image-keyboard-response","trial_index":227,"time_elapsed":239113,"internal_node_id":"0.0-4.0-2.0-1.29","participant_id":"02wkma28n5","prestimulus_duration":628,"correct":true,"type":"MullerLyer","illusion_strength":0,"illusion_difference":-0.21284615384615385,"block_number":2,"trial_number":30},{"rt":null,"stimulus":"<div style=\"font-size:60px;\">+</div>","response":null,"screen":"fixation","trial_type":"html-keyboard-response","trial_index":228,"time_elapsed":239762,"internal_node_id":"0.0-4.0-2.0-0.30","participant_id":"02wkma28n5","trial_duration":645},{"rt":585,"stimulus":"stimuli/MullerLyer_str0_diff0.330538.png","response":"arrowup","screen":"Trial","block":"MullerLyer","correct_response":"arrowup","trial_type":"image-keyboard-response","trial_index":229,"time_elapsed":240359,"internal_node_id":"0.0-4.0-2.0-1.30","participant_id":"02wkma28n5","prestimulus_duration":649,"correct":true,"type":"MullerLyer","illusion_strength":0,"illusion_difference":0.33053846153846156,"block_number":2,"trial_number":31},{"rt":null,"stimulus":"<div style=\"font-size:60px;\">+</div>","response":null,"screen":"fixation","trial_type":"html-keyboard-response","trial_index":230,"time_elapsed":241157,"internal_node_id":"0.0-4.0-2.0-0.31","participant_id":"02wkma28n5","trial_duration":795},{"rt":568,"stimulus":"stimuli/MullerLyer_str0_diff0.283462.png","response":"arrowup","screen":"Trial","block":"MullerLyer","correct_response":"arrowup","trial_type":"image-keyboard-response","trial_index":231,"time_elapsed":241739,"internal_node_id":"0.0-4.0-2.0-1.31","participant_id":"02wkma28n5","prestimulus_duration":798,"correct":true,"type":"MullerLyer","illusion_strength":0,"illusion_difference":0.2834615384615385,"block_number":2,"trial_number":32},{"rt":null,"stimulus":"<div style=\"font-size:60px;\">+</div>","response":null,"screen":"fixation","trial_type":"html-keyboard-response","trial_index":232,"time_elapsed":242315,"internal_node_id":"0.0-4.0-2.0-0.32","participant_id":"02wkma28n5","trial_duration":572},{"rt":648,"stimulus":"stimuli/MullerLyer_str0_diff0.189308.png","response":"arrowup","screen":"Trial","block":"MullerLyer","correct_response":"arrowup","trial_type":"image-keyboard-response","trial_index":233,"time_elapsed":242975,"internal_node_id":"0.0-4.0-2.0-1.32","participant_id":"02wkma28n5","prestimulus_duration":576,"correct":true,"type":"MullerLyer","illusion_strength":0,"illusion_difference":0.18930769230769232,"block_number":2,"trial_number":33},{"rt":null,"stimulus":"<div style=\"font-size:60px;\">+</div>","response":null,"screen":"fixation","trial_type":"html-keyboard-response","trial_index":234,"time_elapsed":243612,"internal_node_id":"0.0-4.0-2.0-0.33","participant_id":"02wkma28n5","trial_duration":633},{"rt":604,"stimulus":"stimuli/MullerLyer_str0_diff-0.448231.png","response":"arrowdown","screen":"Trial","block":"MullerLyer","correct_response":"arrowdown","trial_type":"image-keyboard-response","trial_index":235,"time_elapsed":244231,"internal_node_id":"0.0-4.0-2.0-1.33","participant_id":"02wkma28n5","prestimulus_duration":637,"correct":true,"type":"MullerLyer","illusion_strength":0,"illusion_difference":-0.44823076923076927,"block_number":2,"trial_number":34},{"rt":null,"stimulus":"<div style=\"font-size:60px;\">+</div>","response":null,"screen":"fixation","trial_type":"html-keyboard-response","trial_index":236,"time_elapsed":245223,"internal_node_id":"0.0-4.0-2.0-0.34","participant_id":"02wkma28n5","trial_duration":989},{"rt":591,"stimulus":"stimuli/MullerLyer_str0_diff-0.295231.png","response":"arrowdown","screen":"Trial","block":"MullerLyer","correct_response":"arrowdown","trial_type":"image-keyboard-response","trial_index":237,"time_elapsed":245828,"internal_node_id":"0.0-4.0-2.0-1.34","participant_id":"02wkma28n5","prestimulus_duration":992,"correct":true,"type":"MullerLyer","illusion_strength":0,"illusion_difference":-0.29523076923076924,"block_number":2,"trial_number":35},{"rt":null,"stimulus":"<div style=\"font-size:60px;\">+</div>","response":null,"screen":"fixation","trial_type":"html-keyboard-response","trial_index":238,"time_elapsed":246762,"internal_node_id":"0.0-4.0-2.0-0.35","participant_id":"02wkma28n5","trial_duration":933},{"rt":1263,"stimulus":"stimuli/MullerLyer_str0_diff-0.071615.png","response":"arrowup","screen":"Trial","block":"MullerLyer","correct_response":"arrowdown","trial_type":"image-keyboard-response","trial_index":239,"time_elapsed":248040,"internal_node_id":"0.0-4.0-2.0-1.35","participant_id":"02wkma28n5","prestimulus_duration":934,"correct":false,"type":"MullerLyer","illusion_strength":0,"illusion_difference":-0.07161538461538462,"block_number":2,"trial_number":36},{"rt":null,"stimulus":"<div style=\"font-size:60px;\">+</div>","response":null,"screen":"fixation","trial_type":"html-keyboard-response","trial_index":240,"time_elapsed":248687,"internal_node_id":"0.0-4.0-2.0-0.36","participant_id":"02wkma28n5","trial_duration":644},{"rt":546,"stimulus":"stimuli/MullerLyer_str0_diff-0.412923.png","response":"arrowdown","screen":"Trial","block":"MullerLyer","correct_response":"arrowdown","trial_type":"image-keyboard-response","trial_index":241,"time_elapsed":249247,"internal_node_id":"0.0-4.0-2.0-1.36","participant_id":"02wkma28n5","prestimulus_duration":647,"correct":true,"type":"MullerLyer","illusion_strength":0,"illusion_difference":-0.41292307692307695,"block_number":2,"trial_number":37},{"rt":null,"stimulus":"<div style=\"font-size:60px;\">+</div>","response":null,"screen":"fixation","trial_type":"html-keyboard-response","trial_index":242,"time_elapsed":249824,"internal_node_id":"0.0-4.0-2.0-0.37","participant_id":"02wkma28n5","trial_duration":575},{"rt":608,"stimulus":"stimuli/MullerLyer_str0_diff0.354077.png","response":"arrowup","screen":"Trial","block":"MullerLyer","correct_response":"arrowup","trial_type":"image-keyboard-response","trial_index":243,"time_elapsed":250446,"internal_node_id":"0.0-4.0-2.0-1.37","participant_id":"02wkma28n5","prestimulus_duration":577,"correct":true,"type":"MullerLyer","illusion_strength":0,"illusion_difference":0.35407692307692307,"block_number":2,"trial_number":38},{"rt":null,"stimulus":"<div style=\"font-size:60px;\">+</div>","response":null,"screen":"fixation","trial_type":"html-keyboard-response","trial_index":244,"time_elapsed":251349,"internal_node_id":"0.0-4.0-2.0-0.38","participant_id":"02wkma28n5","trial_duration":897},{"rt":615,"stimulus":"stimuli/MullerLyer_str0_diff0.142231.png","response":"arrowup","screen":"Trial","block":"MullerLyer","correct_response":"arrowup","trial_type":"image-keyboard-response","trial_index":245,"time_elapsed":251978,"internal_node_id":"0.0-4.0-2.0-1.38","participant_id":"02wkma28n5","prestimulus_duration":903,"correct":true,"type":"MullerLyer","illusion_strength":0,"illusion_difference":0.14223076923076924,"block_number":2,"trial_number":39},{"rt":null,"stimulus":"<div style=\"font-size:60px;\">+</div>","response":null,"screen":"fixation","trial_type":"html-keyboard-response","trial_index":246,"time_elapsed":252756,"internal_node_id":"0.0-4.0-2.0-0.39","participant_id":"02wkma28n5","trial_duration":777},{"rt":583,"stimulus":"stimuli/MullerLyer_str0_diff-0.424692.png","response":"arrowdown","screen":"Trial","block":"MullerLyer","correct_response":"arrowdown","trial_type":"image-keyboard-response","trial_index":247,"time_elapsed":253353,"internal_node_id":"0.0-4.0-2.0-1.39","participant_id":"02wkma28n5","prestimulus_duration":778,"correct":true,"type":"MullerLyer","illusion_strength":0,"illusion_difference":-0.4246923076923077,"block_number":2,"trial_number":40},{"rt":null,"stimulus":"<div style=\"font-size:60px;\">+</div>","response":null,"screen":"fixation","trial_type":"html-keyboard-response","trial_index":248,"time_elapsed":253923,"internal_node_id":"0.0-4.0-2.0-0.40","participant_id":"02wkma28n5","trial_duration":564},{"rt":1010,"stimulus":"stimuli/MullerLyer_str0_diff-0.036308.png","response":"arrowdown","screen":"Trial","block":"MullerLyer","correct_response":"arrowdown","trial_type":"image-keyboard-response","trial_index":249,"time_elapsed":254946,"internal_node_id":"0.0-4.0-2.0-1.40","participant_id":"02wkma28n5","prestimulus_duration":570,"correct":true,"type":"MullerLyer","illusion_strength":0,"illusion_difference":-0.03630769230769231,"block_number":2,"trial_number":41},{"rt":null,"stimulus":"<div style=\"font-size:60px;\">+</div>","response":null,"screen":"fixation","trial_type":"html-keyboard-response","trial_index":250,"time_elapsed":255563,"internal_node_id":"0.0-4.0-2.0-0.41","participant_id":"02wkma28n5","trial_duration":613},{"rt":769,"stimulus":"stimuli/MullerLyer_str0_diff-0.201077.png","response":"arrowdown","screen":"Trial","block":"MullerLyer","correct_response":"arrowdown","trial_type":"image-keyboard-response","trial_index":251,"time_elapsed":256346,"internal_node_id":"0.0-4.0-2.0-1.41","participant_id":"02wkma28n5","prestimulus_duration":617,"correct":true,"type":"MullerLyer","illusion_strength":0,"illusion_difference":-0.2010769230769231,"block_number":2,"trial_number":42},{"rt":null,"stimulus":"<div style=\"font-size:60px;\">+</div>","response":null,"screen":"fixation","trial_type":"html-keyboard-response","trial_index":252,"time_elapsed":256950,"internal_node_id":"0.0-4.0-2.0-0.42","participant_id":"02wkma28n5","trial_duration":599},{"rt":625,"stimulus":"stimuli/MullerLyer_str0_diff-0.330538.png","response":"arrowdown","screen":"Trial","block":"MullerLyer","correct_response":"arrowdown","trial_type":"image-keyboard-response","trial_index":253,"time_elapsed":257589,"internal_node_id":"0.0-4.0-2.0-1.42","participant_id":"02wkma28n5","prestimulus_duration":604,"correct":true,"type":"MullerLyer","illusion_strength":0,"illusion_difference":-0.33053846153846156,"block_number":2,"trial_number":43},{"rt":null,"stimulus":"<div style=\"font-size:60px;\">+</div>","response":null,"screen":"fixation","trial_type":"html-keyboard-response","trial_index":254,"time_elapsed":258238,"internal_node_id":"0.0-4.0-2.0-0.43","participant_id":"02wkma28n5","trial_duration":642},{"rt":572,"stimulus":"stimuli/MullerLyer_str0_diff-0.259923.png","response":"arrowdown","screen":"Trial","block":"MullerLyer","correct_response":"arrowdown","trial_type":"image-keyboard-response","trial_index":255,"time_elapsed":258823,"internal_node_id":"0.0-4.0-2.0-1.43","participant_id":"02wkma28n5","prestimulus_duration":649,"correct":true,"type":"MullerLyer","illusion_strength":0,"illusion_difference":-0.2599230769230769,"block_number":2,"trial_number":44},{"rt":null,"stimulus":"<div style=\"font-size:60px;\">+</div>","response":null,"screen":"fixation","trial_type":"html-keyboard-response","trial_index":256,"time_elapsed":259650,"internal_node_id":"0.0-4.0-2.0-0.44","participant_id":"02wkma28n5","trial_duration":821},{"rt":908,"stimulus":"stimuli/MullerLyer_str0_diff-0.189308.png","response":"arrowdown","screen":"Trial","block":"MullerLyer","correct_response":"arrowdown","trial_type":"image-keyboard-response","trial_index":257,"time_elapsed":260571,"internal_node_id":"0.0-4.0-2.0-1.44","participant_id":"02wkma28n5","prestimulus_duration":827,"correct":true,"type":"MullerLyer","illusion_strength":0,"illusion_difference":-0.18930769230769232,"block_number":2,"trial_number":45},{"rt":null,"stimulus":"<div style=\"font-size:60px;\">+</div>","response":null,"screen":"fixation","trial_type":"html-keyboard-response","trial_index":258,"time_elapsed":261083,"internal_node_id":"0.0-4.0-2.0-0.45","participant_id":"02wkma28n5","trial_duration":510},{"rt":716,"stimulus":"stimuli/MullerLyer_str0_diff0.036308.png","response":"arrowup","screen":"Trial","block":"MullerLyer","correct_response":"arrowup","trial_type":"image-keyboard-response","trial_index":259,"time_elapsed":261813,"internal_node_id":"0.0-4.0-2.0-1.45","participant_id":"02wkma28n5","prestimulus_duration":512,"correct":true,"type":"MullerLyer","illusion_strength":0,"illusion_difference":0.03630769230769231,"block_number":2,"trial_number":46},{"rt":null,"stimulus":"<div style=\"font-size:60px;\">+</div>","response":null,"screen":"fixation","trial_type":"html-keyboard-response","trial_index":260,"time_elapsed":262717,"internal_node_id":"0.0-4.0-2.0-0.46","participant_id":"02wkma28n5","trial_duration":898},{"rt":616,"stimulus":"stimuli/MullerLyer_str0_diff0.177538.png","response":"arrowup","screen":"Trial","block":"MullerLyer","correct_response":"arrowup","trial_type":"image-keyboard-response","trial_index":261,"time_elapsed":263344,"internal_node_id":"0.0-4.0-2.0-1.46","participant_id":"02wkma28n5","prestimulus_duration":904,"correct":true,"type":"MullerLyer","illusion_strength":0,"illusion_difference":0.17753846153846153,"block_number":2,"trial_number":47},{"rt":null,"stimulus":"<div style=\"font-size:60px;\">+</div>","response":null,"screen":"fixation","trial_type":"html-keyboard-response","trial_index":262,"time_elapsed":264073,"internal_node_id":"0.0-4.0-2.0-0.47","participant_id":"02wkma28n5","trial_duration":725},{"rt":513,"stimulus":"stimuli/MullerLyer_str0_diff0.259923.png","response":"arrowup","screen":"Trial","block":"MullerLyer","correct_response":"arrowup","trial_type":"image-keyboard-response","trial_index":263,"time_elapsed":264600,"internal_node_id":"0.0-4.0-2.0-1.47","participant_id":"02wkma28n5","prestimulus_duration":729,"correct":true,"type":"MullerLyer","illusion_strength":0,"illusion_difference":0.2599230769230769,"block_number":2,"trial_number":48},{"rt":null,"stimulus":"<div style=\"font-size:60px;\">+</div>","response":null,"screen":"fixation","trial_type":"html-keyboard-response","trial_index":264,"time_elapsed":265173,"internal_node_id":"0.0-4.0-2.0-0.48","participant_id":"02wkma28n5","trial_duration":571},{"rt":528,"stimulus":"stimuli/MullerLyer_str0_diff0.295231.png","response":"arrowup","screen":"Trial","block":"MullerLyer","correct_response":"arrowup","trial_type":"image-keyboard-response","trial_index":265,"time_elapsed":265714,"internal_node_id":"0.0-4.0-2.0-1.48","participant_id":"02wkma28n5","prestimulus_duration":573,"correct":true,"type":"MullerLyer","illusion_strength":0,"illusion_difference":0.29523076923076924,"block_number":2,"trial_number":49},{"rt":null,"stimulus":"<div style=\"font-size:60px;\">+</div>","response":null,"screen":"fixation","trial_type":"html-keyboard-response","trial_index":266,"time_elapsed":266257,"internal_node_id":"0.0-4.0-2.0-0.49","participant_id":"02wkma28n5","trial_duration":536},{"rt":574,"stimulus":"stimuli/MullerLyer_str0_diff-0.401154.png","response":"arrowdown","screen":"Trial","block":"MullerLyer","correct_response":"arrowdown","trial_type":"image-keyboard-response","trial_index":267,"time_elapsed":266845,"internal_node_id":"0.0-4.0-2.0-1.49","participant_id":"02wkma28n5","prestimulus_duration":543,"correct":true,"type":"MullerLyer","illusion_strength":0,"illusion_difference":-0.4011538461538462,"block_number":2,"trial_number":50},{"rt":null,"stimulus":"<div style=\"font-size:60px;\">+</div>","response":null,"screen":"fixation","trial_type":"html-keyboard-response","trial_index":268,"time_elapsed":267641,"internal_node_id":"0.0-4.0-2.0-0.50","participant_id":"02wkma28n5","trial_duration":790},{"rt":626,"stimulus":"stimuli/MullerLyer_str0_diff-0.059846.png","response":"arrowdown","screen":"Trial","block":"MullerLyer","correct_response":"arrowdown","trial_type":"image-keyboard-response","trial_index":269,"time_elapsed":268279,"internal_node_id":"0.0-4.0-2.0-1.50","participant_id":"02wkma28n5","prestimulus_duration":796,"correct":true,"type":"MullerLyer","illusion_strength":0,"illusion_difference":-0.05984615384615385,"block_number":2,"trial_number":51},{"rt":null,"stimulus":"<div style=\"font-size:60px;\">+</div>","response":null,"screen":"fixation","trial_type":"html-keyboard-response","trial_index":270,"time_elapsed":269072,"internal_node_id":"0.0-4.0-2.0-0.51","participant_id":"02wkma28n5","trial_duration":789},{"rt":399,"stimulus":"stimuli/MullerLyer_str0_diff-0.342308.png","response":"arrowup","screen":"Trial","block":"MullerLyer","correct_response":"arrowdown","trial_type":"image-keyboard-response","trial_index":271,"time_elapsed":269485,"internal_node_id":"0.0-4.0-2.0-1.51","participant_id":"02wkma28n5","prestimulus_duration":793,"correct":false,"type":"MullerLyer","illusion_strength":0,"illusion_difference":-0.3423076923076923,"block_number":2,"trial_number":52},{"rt":null,"stimulus":"<div style=\"font-size:60px;\">+</div>","response":null,"screen":"fixation","trial_type":"html-keyboard-response","trial_index":272,"time_elapsed":270380,"internal_node_id":"0.0-4.0-2.0-0.52","participant_id":"02wkma28n5","trial_duration":886},{"rt":696,"stimulus":"stimuli/MullerLyer_str0_diff-0.118692.png","response":"arrowdown","screen":"Trial","block":"MullerLyer","correct_response":"arrowdown","trial_type":"image-keyboard-response","trial_index":273,"time_elapsed":271087,"internal_node_id":"0.0-4.0-2.0-1.52","participant_id":"02wkma28n5","prestimulus_duration":895,"correct":true,"type":"MullerLyer","illusion_strength":0,"illusion_difference":-0.1186923076923077,"block_number":2,"trial_number":53},{"rt":null,"stimulus":"<div style=\"font-size:60px;\">+</div>","response":null,"screen":"fixation","trial_type":"html-keyboar