[{"success":true,"trial_type":"fullscreen","trial_index":0,"time_elapsed":9148,"internal_node_id":"0.0-0.0","participant_id":"8fp09d0fou"},{"success":true,"timeout":false,"failed_images":[],"failed_audio":[],"failed_video":[],"trial_type":"preload","trial_index":1,"time_elapsed":10093,"internal_node_id":"0.0-1.0","participant_id":"8fp09d0fou"},{"rt":31193,"stimulus":"<p><b>The Illusion Game</b></p><p>In this game of speed and reflex, you will need to make <b>visual judgments</b> of different targets (for instance, which circle is the biggest, or which line is the longest), as <b>quickly</b> as possible.</p><p>It can be challenging at times, so you want to rely on your intuition and gut feeling to answer as <b>fast</b> as you can.</p><p>Don't worry, we will show you examples of each target before each block.</p><p>Remember, your goal is to be as <b>fast</b> as possible. Good luck!</p>","response":0,"screen":"general_instructions","trial_type":"html-button-response","trial_index":2,"time_elapsed":41283,"internal_node_id":"0.0-2.0","participant_id":"8fp09d0fou"},{"success":true,"timeout":false,"failed_images":[],"failed_audio":[],"failed_video":[],"trial_type":"preload","trial_index":3,"time_elapsed":42337,"internal_node_id":"0.0-3.0-0.0","participant_id":"8fp09d0fou"},{"rt":12958,"stimulus":"<p><b>Part 1</b></p><p>In this part, two red circles will appear side by side on the screen.</p><p>Your task is to select which <b>red circle is bigger</b> in size as fast as you can, without making errors.</p><p>Press <b>the LEFT or the RIGHT arrow</b> to indicate which is the bigger <b>red circle.</b></p><div style='float: center'><img src='utils/stimuli_demo/Delboeuf_Demo.png' height='300'></img><p><img src='utils/answer/answer_leftright_keyboard.PNG' height='150'></img></p><p class='small'>In this example, the correct answer is the <b>LEFT arrow</b>.</p></div><p>Are you ready? <b>Press ENTER to start</b></p>","response":"enter","trial_type":"html-keyboard-response","trial_index":4,"time_elapsed":55295,"internal_node_id":"0.0-3.0-1.0","participant_id":"8fp09d0fou"},{"rt":null,"stimulus":"<div style=\"font-size:60px;\">+</div>","response":null,"screen":"fixation","trial_type":"html-keyboard-response","trial_index":5,"time_elapsed":56743,"internal_node_id":"0.0-3.0-2.0-0.0","participant_id":"8fp09d0fou","trial_duration":946},{"rt":623,"stimulus":"stimuli/Delboeuf_str0_diff-0.129077.png","response":"arrowright","screen":"Trial","block":"Delboeuf","correct_response":"arrowright","trial_type":"image-keyboard-response","trial_index":6,"time_elapsed":57381,"internal_node_id":"0.0-3.0-2.0-1.0","participant_id":"8fp09d0fou","prestimulus_duration":1448,"correct":true,"type":"Delboeuf","illusion_strength":0,"illusion_difference":-0.1290769230769231,"block_number":1,"trial_number":1},{"rt":null,"stimulus":"<div style=\"font-size:60px;\">+</div>","response":null,"screen":"fixation","trial_type":"html-keyboard-response","trial_index":7,"time_elapsed":57950,"internal_node_id":"0.0-3.0-2.0-0.1","participant_id":"8fp09d0fou","trial_duration":566},{"rt":524,"stimulus":"stimuli/Delboeuf_str0_diff0.923154.png","response":"arrowleft","screen":"Trial","block":"Delboeuf","correct_response":"arrowleft","trial_type":"image-keyboard-response","trial_index":8,"time_elapsed":58487,"internal_node_id":"0.0-3.0-2.0-1.1","participant_id":"8fp09d0fou","prestimulus_duration":569,"correct":true,"type":"Delboeuf","illusion_strength":0,"illusion_difference":0.9231538461538462,"block_number":1,"trial_number":2},{"rt":null,"stimulus":"<div style=\"font-size:60px;\">+</div>","response":null,"screen":"fixation","trial_type":"html-keyboard-response","trial_index":9,"time_elapsed":59465,"internal_node_id":"0.0-3.0-2.0-0.2","participant_id":"8fp09d0fou","trial_duration":974},{"rt":641,"stimulus":"stimuli/Delboeuf_str0_diff0.077846.png","response":"arrowright","screen":"Trial","block":"Delboeuf","correct_response":"arrowleft","trial_type":"image-keyboard-response","trial_index":10,"time_elapsed":60118,"internal_node_id":"0.0-3.0-2.0-1.2","participant_id":"8fp09d0fou","prestimulus_duration":978,"correct":false,"type":"Delboeuf","illusion_strength":0,"illusion_difference":0.07784615384615384,"block_number":1,"trial_number":3},{"rt":null,"stimulus":"<div style=\"font-size:60px;\">+</div>","response":null,"screen":"fixation","trial_type":"html-keyboard-response","trial_index":11,"time_elapsed":61001,"internal_node_id":"0.0-3.0-2.0-0.3","participant_id":"8fp09d0fou","trial_duration":881},{"rt":447,"stimulus":"stimuli/Delboeuf_str0_diff0.846308.png","response":"arrowleft","screen":"Trial","block":"Delboeuf","correct_response":"arrowleft","trial_type":"image-keyboard-response","trial_index":12,"time_elapsed":61461,"internal_node_id":"0.0-3.0-2.0-1.3","participant_id":"8fp09d0fou","prestimulus_duration":883,"correct":true,"type":"Delboeuf","illusion_strength":0,"illusion_difference":0.8463076923076923,"block_number":1,"trial_number":4},{"rt":null,"stimulus":"<div style=\"font-size:60px;\">+</div>","response":null,"screen":"fixation","trial_type":"html-keyboard-response","trial_index":13,"time_elapsed":62366,"internal_node_id":"0.0-3.0-2.0-0.4","participant_id":"8fp09d0fou","trial_duration":905},{"rt":650,"stimulus":"stimuli/Delboeuf_str0_diff0.052231.png","response":"arrowright","screen":"Trial","block":"Delboeuf","correct_response":"arrowleft","trial_type":"image-keyboard-response","trial_index":14,"time_elapsed":63030,"internal_node_id":"0.0-3.0-2.0-1.4","participant_id":"8fp09d0fou","prestimulus_duration":905,"correct":false,"type":"Delboeuf","illusion_strength":0,"illusion_difference":0.05223076923076923,"block_number":1,"trial_number":5},{"rt":null,"stimulus":"<div style=\"font-size:60px;\">+</div>","response":null,"screen":"fixation","trial_type":"html-keyboard-response","trial_index":15,"time_elapsed":63726,"internal_node_id":"0.0-3.0-2.0-0.5","participant_id":"8fp09d0fou","trial_duration":693},{"rt":466,"stimulus":"stimuli/Delboeuf_str0_diff0.667.png","response":"arrowleft","screen":"Trial","block":"Delboeuf","correct_response":"arrowleft","trial_type":"image-keyboard-response","trial_index":16,"time_elapsed":64206,"internal_node_id":"0.0-3.0-2.0-1.5","participant_id":"8fp09d0fou","prestimulus_duration":696,"correct":true,"type":"Delboeuf","illusion_strength":0,"illusion_difference":0.667,"block_number":1,"trial_number":6},{"rt":null,"stimulus":"<div style=\"font-size:60px;\">+</div>","response":null,"screen":"fixation","trial_type":"html-keyboard-response","trial_index":17,"time_elapsed":65129,"internal_node_id":"0.0-3.0-2.0-0.6","participant_id":"8fp09d0fou","trial_duration":922},{"rt":528,"stimulus":"stimuli/Delboeuf_str0_diff0.001.png","response":"arrowright","screen":"Trial","block":"Delboeuf","correct_response":"arrowleft","trial_type":"image-keyboard-response","trial_index":18,"time_elapsed":65670,"internal_node_id":"0.0-3.0-2.0-1.6","participant_id":"8fp09d0fou","prestimulus_duration":923,"correct":false,"type":"Delboeuf","illusion_strength":0,"illusion_difference":0.001,"block_number":1,"trial_number":7},{"rt":null,"stimulus":"<div style=\"font-size:60px;\">+</div>","response":null,"screen":"fixation","trial_type":"html-keyboard-response","trial_index":19,"time_elapsed":66662,"internal_node_id":"0.0-3.0-2.0-0.7","participant_id":"8fp09d0fou","trial_duration":989},{"rt":491,"stimulus":"stimuli/Delboeuf_str0_diff0.769462.png","response":"arrowleft","screen":"Trial","block":"Delboeuf","correct_response":"arrowleft","trial_type":"image-keyboard-response","trial_index":20,"time_elapsed":67165,"internal_node_id":"0.0-3.0-2.0-1.7","participant_id":"8fp09d0fou","prestimulus_duration":992,"correct":true,"type":"Delboeuf","illusion_strength":0,"illusion_difference":0.7694615384615385,"block_number":1,"trial_number":8},{"rt":null,"stimulus":"<div style=\"font-size:60px;\">+</div>","response":null,"screen":"fixation","trial_type":"html-keyboard-response","trial_index":21,"time_elapsed":67675,"internal_node_id":"0.0-3.0-2.0-0.8","participant_id":"8fp09d0fou","trial_duration":508},{"rt":646,"stimulus":"stimuli/Delboeuf_str0_diff0.129077.png","response":"arrowright","screen":"Trial","block":"Delboeuf","correct_response":"arrowleft","trial_type":"image-keyboard-response","trial_index":22,"time_elapsed":68333,"internal_node_id":"0.0-3.0-2.0-1.8","participant_id":"8fp09d0fou","prestimulus_duration":510,"correct":false,"type":"Delboeuf","illusion_strength":0,"illusion_difference":0.1290769230769231,"block_number":1,"trial_number":9},{"rt":null,"stimulus":"<div style=\"font-size:60px;\">+</div>","response":null,"screen":"fixation","trial_type":"html-keyboard-response","trial_index":23,"time_elapsed":68894,"internal_node_id":"0.0-3.0-2.0-0.9","participant_id":"8fp09d0fou","trial_duration":558},{"rt":436,"stimulus":"stimuli/Delboeuf_str0_diff-0.026615.png","response":"arrowright","screen":"Trial","block":"Delboeuf","correct_response":"arrowright","trial_type":"image-keyboard-response","trial_index":24,"time_elapsed":69343,"internal_node_id":"0.0-3.0-2.0-1.9","participant_id":"8fp09d0fou","prestimulus_duration":561,"correct":true,"type":"Delboeuf","illusion_strength":0,"illusion_difference":-0.026615384615384617,"block_number":1,"trial_number":10},{"rt":null,"stimulus":"<div style=\"font-size:60px;\">+</div>","response":null,"screen":"fixation","trial_type":"html-keyboard-response","trial_index":25,"time_elapsed":70035,"internal_node_id":"0.0-3.0-2.0-0.10","participant_id":"8fp09d0fou","trial_duration":689},{"rt":492,"stimulus":"stimuli/Delboeuf_str0_diff0.231538.png","response":"arrowright","screen":"Trial","block":"Delboeuf","correct_response":"arrowleft","trial_type":"image-keyboard-response","trial_index":26,"time_elapsed":70541,"internal_node_id":"0.0-3.0-2.0-1.10","participant_id":"8fp09d0fou","prestimulus_duration":692,"correct":false,"type":"Delboeuf","illusion_strength":0,"illusion_difference":0.23153846153846155,"block_number":1,"trial_number":11},{"rt":null,"stimulus":"<div style=\"font-size:60px;\">+</div>","response":null,"screen":"fixation","trial_type":"html-keyboard-response","trial_index":27,"time_elapsed":71401,"internal_node_id":"0.0-3.0-2.0-0.11","participant_id":"8fp09d0fou","trial_duration":860},{"rt":615,"stimulus":"stimuli/Delboeuf_str0_diff-0.001.png","response":"arrowleft","screen":"Trial","block":"Delboeuf","correct_response":"arrowright","trial_type":"image-keyboard-response","trial_index":28,"time_elapsed":72029,"internal_node_id":"0.0-3.0-2.0-1.11","participant_id":"8fp09d0fou","prestimulus_duration":860,"correct":false,"type":"Delboeuf","illusion_strength":0,"illusion_difference":-0.001,"block_number":1,"trial_number":12},{"rt":null,"stimulus":"<div style=\"font-size:60px;\">+</div>","response":null,"screen":"fixation","trial_type":"html-keyboard-response","trial_index":29,"time_elapsed":72598,"internal_node_id":"0.0-3.0-2.0-0.12","participant_id":"8fp09d0fou","trial_duration":565},{"rt":577,"stimulus":"stimuli/Delboeuf_str0_diff0.462077.png","response":"arrowright","screen":"Trial","block":"Delboeuf","correct_response":"arrowleft","trial_type":"image-keyboard-response","trial_index":30,"time_elapsed":73189,"internal_node_id":"0.0-3.0-2.0-1.12","participant_id":"8fp09d0fou","prestimulus_duration":569,"correct":false,"type":"Delboeuf","illusion_strength":0,"illusion_difference":0.4620769230769231,"block_number":1,"trial_number":13},{"rt":null,"stimulus":"<div style=\"font-size:60px;\">+</div>","response":null,"screen":"fixation","trial_type":"html-keyboard-response","trial_index":31,"time_elapsed":74046,"internal_node_id":"0.0-3.0-2.0-0.13","participant_id":"8fp09d0fou","trial_duration":855},{"rt":404,"stimulus":"stimuli/Delboeuf_str0_diff-0.948769.png","response":"arrowright","screen":"Trial","block":"Delboeuf","correct_response":"arrowright","trial_type":"image-keyboard-response","trial_index":32,"time_elapsed":74461,"internal_node_id":"0.0-3.0-2.0-1.13","participant_id":"8fp09d0fou","prestimulus_duration":857,"correct":true,"type":"Delboeuf","illusion_strength":0,"illusion_difference":-0.9487692307692308,"block_number":1,"trial_number":14},{"rt":null,"stimulus":"<div style=\"font-size:60px;\">+</div>","response":null,"screen":"fixation","trial_type":"html-keyboard-response","trial_index":33,"time_elapsed":75370,"internal_node_id":"0.0-3.0-2.0-0.14","participant_id":"8fp09d0fou","trial_duration":903},{"rt":518,"stimulus":"stimuli/Delboeuf_str0_diff0.359615.png","response":"arrowleft","screen":"Trial","block":"Delboeuf","correct_response":"arrowleft","trial_type":"image-keyboard-response","trial_index":34,"time_elapsed":75900,"internal_node_id":"0.0-3.0-2.0-1.14","participant_id":"8fp09d0fou","prestimulus_duration":909,"correct":true,"type":"Delboeuf","illusion_strength":0,"illusion_difference":0.3596153846153846,"block_number":1,"trial_number":15},{"rt":null,"stimulus":"<div style=\"font-size:60px;\">+</div>","response":null,"screen":"fixation","trial_type":"html-keyboard-response","trial_index":35,"time_elapsed":76852,"internal_node_id":"0.0-3.0-2.0-0.15","participant_id":"8fp09d0fou","trial_duration":947},{"rt":438,"stimulus":"stimuli/Delboeuf_str0_diff0.743846.png","response":"arrowleft","screen":"Trial","block":"Delboeuf","correct_response":"arrowleft","trial_type":"image-keyboard-response","trial_index":36,"time_elapsed":77302,"internal_node_id":"0.0-3.0-2.0-1.15","participant_id":"8fp09d0fou","prestimulus_duration":952,"correct":true,"type":"Delboeuf","illusion_strength":0,"illusion_difference":0.7438461538461538,"block_number":1,"trial_number":16},{"rt":null,"stimulus":"<div style=\"font-size:60px;\">+</div>","response":null,"screen":"fixation","trial_type":"html-keyboard-response","trial_index":37,"time_elapsed":78290,"internal_node_id":"0.0-3.0-2.0-0.16","participant_id":"8fp09d0fou","trial_duration":986},{"rt":406,"stimulus":"stimuli/Delboeuf_str0_diff-0.590154.png","response":"arrowright","screen":"Trial","block":"Delboeuf","correct_response":"arrowright","trial_type":"image-keyboard-response","trial_index":38,"time_elapsed":78710,"internal_node_id":"0.0-3.0-2.0-1.16","participant_id":"8fp09d0fou","prestimulus_duration":988,"correct":true,"type":"Delboeuf","illusion_strength":0,"illusion_difference":-0.5901538461538461,"block_number":1,"trial_number":17},{"rt":null,"stimulus":"<div style=\"font-size:60px;\">+</div>","response":null,"screen":"fixation","trial_type":"html-keyboard-response","trial_index":39,"time_elapsed":79636,"internal_node_id":"0.0-3.0-2.0-0.17","participant_id":"8fp09d0fou","trial_duration":925},{"rt":445,"stimulus":"stimuli/Delboeuf_str0_diff0.257154.png","response":"arrowright","screen":"Trial","block":"Delboeuf","correct_response":"arrowleft","trial_type":"image-keyboard-response","trial_index":40,"time_elapsed":80093,"internal_node_id":"0.0-3.0-2.0-1.17","participant_id":"8fp09d0fou","prestimulus_duration":926,"correct":false,"type":"Delboeuf","illusion_strength":0,"illusion_difference":0.2571538461538462,"block_number":1,"trial_number":18},{"rt":null,"stimulus":"<div style=\"font-size:60px;\">+</div>","response":null,"screen":"fixation","trial_type":"html-keyboard-response","trial_index":41,"time_elapsed":80653,"internal_node_id":"0.0-3.0-2.0-0.18","participant_id":"8fp09d0fou","trial_duration":555},{"rt":435,"stimulus":"stimuli/Delboeuf_str0_diff-0.897538.png","response":"arrowright","screen":"Trial","block":"Delboeuf","correct_response":"arrowright","trial_type":"image-keyboard-response","trial_index":42,"time_elapsed":81100,"internal_node_id":"0.0-3.0-2.0-1.18","participant_id":"8fp09d0fou","prestimulus_duration":560,"correct":true,"type":"Delboeuf","illusion_strength":0,"illusion_difference":-0.8975384615384616,"block_number":1,"trial_number":19},{"rt":null,"stimulus":"<div style=\"font-size:60px;\">+</div>","response":null,"screen":"fixation","trial_type":"html-keyboard-response","trial_index":43,"time_elapsed":82015,"internal_node_id":"0.0-3.0-2.0-0.19","participant_id":"8fp09d0fou","trial_duration":911},{"rt":728,"stimulus":"stimuli/Delboeuf_str0_diff0.180308.png","response":"arrowleft","screen":"Trial","block":"Delboeuf","correct_response":"arrowleft","trial_type":"image-keyboard-response","trial_index":44,"time_elapsed":82757,"internal_node_id":"0.0-3.0-2.0-1.19","participant_id":"8fp09d0fou","prestimulus_duration":915,"correct":true,"type":"Delboeuf","illusion_strength":0,"illusion_difference":0.1803076923076923,"block_number":1,"trial_number":20},{"rt":null,"stimulus":"<div style=\"font-size:60px;\">+</div>","response":null,"screen":"fixation","trial_type":"html-keyboard-response","trial_index":45,"time_elapsed":83718,"internal_node_id":"0.0-3.0-2.0-0.20","participant_id":"8fp09d0fou","trial_duration":957},{"rt":475,"stimulus":"stimuli/Delboeuf_str0_diff-0.769462.png","response":"arrowright","screen":"Trial","block":"Delboeuf","correct_response":"arrowright","trial_type":"image-keyboard-response","trial_index":46,"time_elapsed":84206,"internal_node_id":"0.0-3.0-2.0-1.20","participant_id":"8fp09d0fou","prestimulus_duration":961,"correct":true,"type":"Delboeuf","illusion_strength":0,"illusion_difference":-0.7694615384615385,"block_number":1,"trial_number":21},{"rt":null,"stimulus":"<div style=\"font-size:60px;\">+</div>","response":null,"screen":"fixation","trial_type":"html-keyboard-response","trial_index":47,"time_elapsed":84828,"internal_node_id":"0.0-3.0-2.0-0.21","participant_id":"8fp09d0fou","trial_duration":619},{"rt":453,"stimulus":"stimuli/Delboeuf_str0_diff0.948769.png","response":"arrowleft","screen":"Trial","block":"Delboeuf","correct_response":"arrowleft","trial_type":"image-keyboard-response","trial_index":48,"time_elapsed":85294,"internal_node_id":"0.0-3.0-2.0-1.21","participant_id":"8fp09d0fou","prestimulus_duration":622,"correct":true,"type":"Delboeuf","illusion_strength":0,"illusion_difference":0.9487692307692308,"block_number":1,"trial_number":22},{"rt":null,"stimulus":"<div style=\"font-size:60px;\">+</div>","response":null,"screen":"fixation","trial_type":"html-keyboard-response","trial_index":49,"time_elapsed":86047,"internal_node_id":"0.0-3.0-2.0-0.22","participant_id":"8fp09d0fou","trial_duration":751},{"rt":409,"stimulus":"stimuli/Delboeuf_str0_diff-0.385231.png","response":"arrowright","screen":"Trial","block":"Delboeuf","correct_response":"arrowright","trial_type":"image-keyboard-response","trial_index":50,"time_elapsed":86468,"internal_node_id":"0.0-3.0-2.0-1.22","participant_id":"8fp09d0fou","prestimulus_duration":753,"correct":true,"type":"Delboeuf","illusion_strength":0,"illusion_difference":-0.38523076923076927,"block_number":1,"trial_number":23},{"rt":null,"stimulus":"<div style=\"font-size:60px;\">+</div>","response":null,"screen":"fixation","trial_type":"html-keyboard-response","trial_index":51,"time_elapsed":87157,"internal_node_id":"0.0-3.0-2.0-0.23","participant_id":"8fp09d0fou","trial_duration":685},{"rt":523,"stimulus":"stimuli/Delboeuf_str0_diff0.282769.png","response":"arrowleft","screen":"Trial","block":"Delboeuf","correct_response":"arrowleft","trial_type":"image-keyboard-response","trial_index":52,"time_elapsed":87693,"internal_node_id":"0.0-3.0-2.0-1.23","participant_id":"8fp09d0fou","prestimulus_duration":689,"correct":true,"type":"Delboeuf","illusion_strength":0,"illusion_difference":0.2827692307692308,"block_number":1,"trial_number":24},{"rt":null,"stimulus":"<div style=\"font-size:60px;\">+</div>","response":null,"screen":"fixation","trial_type":"html-keyboard-response","trial_index":53,"time_elapsed":88209,"internal_node_id":"0.0-3.0-2.0-0.24","participant_id":"8fp09d0fou","trial_duration":513},{"rt":496,"stimulus":"stimuli/Delboeuf_str0_diff0.436462.png","response":"arrowleft","screen":"Trial","block":"Delboeuf","correct_response":"arrowleft","trial_type":"image-keyboard-response","trial_index":54,"time_elapsed":88717,"internal_node_id":"0.0-3.0-2.0-1.24","participant_id":"8fp09d0fou","prestimulus_duration":516,"correct":true,"type":"Delboeuf","illusion_strength":0,"illusion_difference":0.43646153846153846,"block_number":1,"trial_number":25},{"rt":null,"stimulus":"<div style=\"font-size:60px;\">+</div>","response":null,"screen":"fixation","trial_type":"html-keyboard-response","trial_index":55,"time_elapsed":89650,"internal_node_id":"0.0-3.0-2.0-0.25","participant_id":"8fp09d0fou","trial_duration":931},{"rt":448,"stimulus":"stimuli/Delboeuf_str0_diff-0.564538.png","response":"arrowright","screen":"Trial","block":"Delboeuf","correct_response":"arrowright","trial_type":"image-keyboard-response","trial_index":56,"time_elapsed":90109,"internal_node_id":"0.0-3.0-2.0-1.25","participant_id":"8fp09d0fou","prestimulus_duration":933,"correct":true,"type":"Delboeuf","illusion_strength":0,"illusion_difference":-0.5645384615384615,"block_number":1,"trial_number":26},{"rt":null,"stimulus":"<div style=\"font-size:60px;\">+</div>","response":null,"screen":"fixation","trial_type":"html-keyboard-response","trial_index":57,"time_elapsed":90847,"internal_node_id":"0.0-3.0-2.0-0.26","participant_id":"8fp09d0fou","trial_duration":736},{"rt":586,"stimulus":"stimuli/Delboeuf_str0_diff0.154692.png","response":"arrowright","screen":"Trial","block":"Delboeuf","correct_response":"arrowleft","trial_type":"image-keyboard-response","trial_index":58,"time_elapsed":91445,"internal_node_id":"0.0-3.0-2.0-1.26","participant_id":"8fp09d0fou","prestimulus_duration":738,"correct":false,"type":"Delboeuf","illusion_strength":0,"illusion_difference":0.15469230769230768,"block_number":1,"trial_number":27},{"rt":null,"stimulus":"<div style=\"font-size:60px;\">+</div>","response":null,"screen":"fixation","trial_type":"html-keyboard-response","trial_index":59,"time_elapsed":92042,"internal_node_id":"0.0-3.0-2.0-0.27","participant_id":"8fp09d0fou","trial_duration":593},{"rt":455,"stimulus":"stimuli/Delboeuf_str0_diff1.0.png","response":"arrowleft","screen":"Trial","block":"Delboeuf","correct_response":"arrowleft","trial_type":"image-keyboard-response","trial_index":60,"time_elapsed":92509,"internal_node_id":"0.0-3.0-2.0-1.27","participant_id":"8fp09d0fou","prestimulus_duration":597,"correct":true,"type":"Delboeuf","illusion_strength":0,"illusion_difference":1,"block_number":1,"trial_number":28},{"rt":null,"stimulus":"<div style=\"font-size:60px;\">+</div>","response":null,"screen":"fixation","trial_type":"html-keyboard-response","trial_index":61,"time_elapsed":93465,"internal_node_id":"0.0-3.0-2.0-0.28","participant_id":"8fp09d0fou","trial_duration":956},{"rt":455,"stimulus":"stimuli/Delboeuf_str0_diff-0.462077.png","response":"arrowright","screen":"Trial","block":"Delboeuf","correct_response":"arrowright","trial_type":"image-keyboard-response","trial_index":62,"time_elapsed":93933,"internal_node_id":"0.0-3.0-2.0-1.28","participant_id":"8fp09d0fou","prestimulus_duration":956,"correct":true,"type":"Delboeuf","illusion_strength":0,"illusion_difference":-0.4620769230769231,"block_number":1,"trial_number":29},{"rt":null,"stimulus":"<div style=\"font-size:60px;\">+</div>","response":null,"screen":"fixation","trial_type":"html-keyboard-response","trial_index":63,"time_elapsed":94565,"internal_node_id":"0.0-3.0-2.0-0.29","participant_id":"8fp09d0fou","trial_duration":631},{"rt":396,"stimulus":"stimuli/Delboeuf_str0_diff0.820692.png","response":"arrowleft","screen":"Trial","block":"Delboeuf","correct_response":"arrowleft","trial_type":"image-keyboard-response","trial_index":64,"time_elapsed":94973,"internal_node_id":"0.0-3.0-2.0-1.29","participant_id":"8fp09d0fou","prestimulus_duration":632,"correct":true,"type":"Delboeuf","illusion_strength":0,"illusion_difference":0.8206923076923077,"block_number":1,"trial_number":30},{"rt":null,"stimulus":"<div style=\"font-size:60px;\">+</div>","response":null,"screen":"fixation","trial_type":"html-keyboard-response","trial_index":65,"time_elapsed":95586,"internal_node_id":"0.0-3.0-2.0-0.30","participant_id":"8fp09d0fou","trial_duration":610},{"rt":407,"stimulus":"stimuli/Delboeuf_str0_diff-0.308385.png","response":"arrowright","screen":"Trial","block":"Delboeuf","correct_response":"arrowright","trial_type":"image-keyboard-response","trial_index":66,"time_elapsed":96005,"internal_node_id":"0.0-3.0-2.0-1.30","participant_id":"8fp09d0fou","prestimulus_duration":613,"correct":true,"type":"Delboeuf","illusion_strength":0,"illusion_difference":-0.30838461538461537,"block_number":1,"trial_number":31},{"rt":null,"stimulus":"<div style=\"font-size:60px;\">+</div>","response":null,"screen":"fixation","trial_type":"html-keyboard-response","trial_index":67,"time_elapsed":96778,"internal_node_id":"0.0-3.0-2.0-0.31","participant_id":"8fp09d0fou","trial_duration":770},{"rt":397,"stimulus":"stimuli/Delboeuf_str0_diff-0.871923.png","response":"arrowright","screen":"Trial","block":"Delboeuf","correct_response":"arrowright","trial_type":"image-keyboard-response","trial_index":68,"time_elapsed":97187,"internal_node_id":"0.0-3.0-2.0-1.31","participant_id":"8fp09d0fou","prestimulus_duration":773,"correct":true,"type":"Delboeuf","illusion_strength":0,"illusion_difference":-0.8719230769230769,"block_number":1,"trial_number":32},{"rt":null,"stimulus":"<div style=\"font-size:60px;\">+</div>","response":null,"screen":"fixation","trial_type":"html-keyboard-response","trial_index":69,"time_elapsed":97834,"internal_node_id":"0.0-3.0-2.0-0.32","participant_id":"8fp09d0fou","trial_duration":646},{"rt":438,"stimulus":"stimuli/Delboeuf_str0_diff0.692615.png","response":"arrowleft","screen":"Trial","block":"Delboeuf","correct_response":"arrowleft","trial_type":"image-keyboard-response","trial_index":70,"time_elapsed":98285,"internal_node_id":"0.0-3.0-2.0-1.32","participant_id":"8fp09d0fou","prestimulus_duration":647,"correct":true,"type":"Delboeuf","illusion_strength":0,"illusion_difference":0.6926153846153846,"block_number":1,"trial_number":33},{"rt":null,"stimulus":"<div style=\"font-size:60px;\">+</div>","response":null,"screen":"fixation","trial_type":"html-keyboard-response","trial_index":71,"time_elapsed":98922,"internal_node_id":"0.0-3.0-2.0-0.33","participant_id":"8fp09d0fou","trial_duration":634},{"rt":351,"stimulus":"stimuli/Delboeuf_str0_diff-0.538923.png","response":"arrowright","screen":"Trial","block":"Delboeuf","correct_response":"arrowright","trial_type":"image-keyboard-response","trial_index":72,"time_elapsed":99285,"internal_node_id":"0.0-3.0-2.0-1.33","participant_id":"8fp09d0fou","prestimulus_duration":637,"correct":true,"type":"Delboeuf","illusion_strength":0,"illusion_difference":-0.538923076923077,"block_number":1,"trial_number":34},{"rt":null,"stimulus":"<div style=\"font-size:60px;\">+</div>","response":null,"screen":"fixation","trial_type":"html-keyboard-response","trial_index":73,"time_elapsed":99839,"internal_node_id":"0.0-3.0-2.0-0.34","participant_id":"8fp09d0fou","trial_duration":550},{"rt":463,"stimulus":"stimuli/Delboeuf_str0_diff0.615769.png","response":"arrowleft","screen":"Trial","block":"Delboeuf","correct_response":"arrowleft","trial_type":"image-keyboard-response","trial_index":74,"time_elapsed":100317,"internal_node_id":"0.0-3.0-2.0-1.34","participant_id":"8fp09d0fou","prestimulus_duration":554,"correct":true,"type":"Delboeuf","illusion_strength":0,"illusion_difference":0.6157692307692307,"block_number":1,"trial_number":35},{"rt":null,"stimulus":"<div style=\"font-size:60px;\">+</div>","response":null,"screen":"fixation","trial_type":"html-keyboard-response","trial_index":75,"time_elapsed":100882,"internal_node_id":"0.0-3.0-2.0-0.35","participant_id":"8fp09d0fou","trial_duration":559},{"rt":503,"stimulus":"stimuli/Delboeuf_str0_diff0.564538.png","response":"arrowleft","screen":"Trial","block":"Delboeuf","correct_response":"arrowleft","trial_type":"image-keyboard-response","trial_index":76,"time_elapsed":101397,"internal_node_id":"0.0-3.0-2.0-1.35","participant_id":"8fp09d0fou","prestimulus_duration":565,"correct":true,"type":"Delboeuf","illusion_strength":0,"illusion_difference":0.5645384615384615,"block_number":1,"trial_number":36},{"rt":null,"stimulus":"<div style=\"font-size:60px;\">+</div>","response":null,"screen":"fixation","trial_type":"html-keyboard-response","trial_index":77,"time_elapsed":102333,"internal_node_id":"0.0-3.0-2.0-0.36","participant_id":"8fp09d0fou","trial_duration":933},{"rt":371,"stimulus":"stimuli/Delboeuf_str0_diff-0.436462.png","response":"arrowright","screen":"Trial","block":"Delboeuf","correct_response":"arrowright","trial_type":"image-keyboard-response","trial_index":78,"time_elapsed":102717,"internal_node_id":"0.0-3.0-2.0-1.36","participant_id":"8fp09d0fou","prestimulus_duration":936,"correct":true,"type":"Delboeuf","illusion_strength":0,"illusion_difference":-0.43646153846153846,"block_number":1,"trial_number":37},{"rt":null,"stimulus":"<div style=\"font-size:60px;\">+</div>","response":null,"screen":"fixation","trial_type":"html-keyboard-response","trial_index":79,"time_elapsed":103496,"internal_node_id":"0.0-3.0-2.0-0.37","participant_id":"8fp09d0fou","trial_duration":774},{"rt":481,"stimulus":"stimuli/Delboeuf_str0_diff0.974385.png","response":"arrowleft","screen":"Trial","block":"Delboeuf","correct_response":"arrowleft","trial_type":"image-keyboard-response","trial_index":80,"time_elapsed":103989,"internal_node_id":"0.0-3.0-2.0-1.37","participant_id":"8fp09d0fou","prestimulus_duration":779,"correct":true,"type":"Delboeuf","illusion_strength":0,"illusion_difference":0.9743846153846154,"block_number":1,"trial_number":38},{"rt":null,"stimulus":"<div style=\"font-size:60px;\">+</div>","response":null,"screen":"fixation","trial_type":"html-keyboard-response","trial_index":81,"time_elapsed":104731,"internal_node_id":"0.0-3.0-2.0-0.38","participant_id":"8fp09d0fou","trial_duration":736},{"rt":415,"stimulus":"stimuli/Delboeuf_str0_diff-0.615769.png","response":"arrowright","screen":"Trial","block":"Delboeuf","correct_response":"arrowright","trial_type":"image-keyboard-response","trial_index":82,"time_elapsed":105158,"internal_node_id":"0.0-3.0-2.0-1.38","participant_id":"8fp09d0fou","prestimulus_duration":742,"correct":true,"type":"Delboeuf","illusion_strength":0,"illusion_difference":-0.6157692307692307,"block_number":1,"trial_number":39},{"rt":null,"stimulus":"<div style=\"font-size:60px;\">+</div>","response":null,"screen":"fixation","trial_type":"html-keyboard-response","trial_index":83,"time_elapsed":105851,"internal_node_id":"0.0-3.0-2.0-0.39","participant_id":"8fp09d0fou","trial_duration":689},{"rt":494,"stimulus":"stimuli/Delboeuf_str0_diff-0.487692.png","response":"arrowright","screen":"Trial","block":"Delboeuf","correct_response":"arrowright","trial_type":"image-keyboard-response","trial_index":84,"time_elapsed":106357,"internal_node_id":"0.0-3.0-2.0-1.39","participant_id":"8fp09d0fou","prestimulus_duration":693,"correct":true,"type":"Delboeuf","illusion_strength":0,"illusion_difference":-0.4876923076923077,"block_number":1,"trial_number":40},{"rt":null,"stimulus":"<div style=\"font-size:60px;\">+</div>","response":null,"screen":"fixation","trial_type":"html-keyboard-response","trial_index":85,"time_elapsed":106922,"internal_node_id":"0.0-3.0-2.0-0.40","participant_id":"8fp09d0fou","trial_duration":561},{"rt":485,"stimulus":"stimuli/Delboeuf_str0_diff-0.334.png","response":"arrowright","screen":"Trial","block":"Delboeuf","correct_response":"arrowright","trial_type":"image-keyboard-response","trial_index":86,"time_elapsed":107421,"internal_node_id":"0.0-3.0-2.0-1.40","participant_id":"8fp09d0fou","prestimulus_duration":565,"correct":true,"type":"Delboeuf","illusion_strength":0,"illusion_difference":-0.334,"block_number":1,"trial_number":41},{"rt":null,"stimulus":"<div style=\"font-size:60px;\">+</div>","response":null,"screen":"fixation","trial_type":"html-keyboard-response","trial_index":87,"time_elapsed":107960,"internal_node_id":"0.0-3.0-2.0-0.41","participant_id":"8fp09d0fou","trial_duration":535},{"rt":471,"stimulus":"stimuli/Delboeuf_str0_diff0.205923.png","response":"arrowleft","screen":"Trial","block":"Delboeuf","correct_response":"arrowleft","trial_type":"image-keyboard-response","trial_index":88,"time_elapsed":108445,"internal_node_id":"0.0-3.0-2.0-1.41","participant_id":"8fp09d0fou","prestimulus_duration":539,"correct":true,"type":"Delboeuf","illusion_strength":0,"illusion_difference":0.20592307692307693,"block_number":1,"trial_number":42},{"rt":null,"stimulus":"<div style=\"font-size:60px;\">+</div>","response":null,"screen":"fixation","trial_type":"html-keyboard-response","trial_index":89,"time_elapsed":109419,"internal_node_id":"0.0-3.0-2.0-0.42","participant_id":"8fp09d0fou","trial_duration":973},{"rt":461,"stimulus":"stimuli/Delboeuf_str0_diff0.718231.png","response":"arrowleft","screen":"Trial","block":"Delboeuf","correct_response":"arrowleft","trial_type":"image-keyboard-response","trial_index":90,"time_elapsed":109893,"internal_node_id":"0.0-3.0-2.0-1.42","participant_id":"8fp09d0fou","prestimulus_duration":974,"correct":true,"type":"Delboeuf","illusion_strength":0,"illusion_difference":0.7182307692307692,"block_number":1,"trial_number":43},{"rt":null,"stimulus":"<div style=\"font-size:60px;\">+</div>","response":null,"screen":"fixation","trial_type":"html-keyboard-response","trial_index":91,"time_elapsed":110484,"internal_node_id":"0.0-3.0-2.0-0.43","participant_id":"8fp09d0fou","trial_duration":589},{"rt":406,"stimulus":"stimuli/Delboeuf_str0_diff-0.743846.png","response":"arrowright","screen":"Trial","block":"Delboeuf","correct_response":"arrowright","trial_type":"image-keyboard-response","trial_index":92,"time_elapsed":110901,"internal_node_id":"0.0-3.0-2.0-1.43","participant_id":"8fp09d0fou","prestimulus_duration":591,"correct":true,"type":"Delboeuf","illusion_strength":0,"illusion_difference":-0.7438461538461538,"block_number":1,"trial_number":44},{"rt":null,"stimulus":"<div style=\"font-size:60px;\">+</div>","response":null,"screen":"fixation","trial_type":"html-keyboard-response","trial_index":93,"time_elapsed":111643,"internal_node_id":"0.0-3.0-2.0-0.44","participant_id":"8fp09d0fou","trial_duration":739},{"rt":469,"stimulus":"stimuli/Delboeuf_str0_diff0.385231.png","response":"arrowleft","screen":"Trial","block":"Delboeuf","correct_response":"arrowleft","trial_type":"image-keyboard-response","trial_index":94,"time_elapsed":112125,"internal_node_id":"0.0-3.0-2.0-1.44","participant_id":"8fp09d0fou","prestimulus_duration":742,"correct":true,"type":"Delboeuf","illusion_strength":0,"illusion_difference":0.38523076923076927,"block_number":1,"trial_number":45},{"rt":null,"stimulus":"<div style=\"font-size:60px;\">+</div>","response":null,"screen":"fixation","trial_type":"html-keyboard-response","trial_index":95,"time_elapsed":113032,"internal_node_id":"0.0-3.0-2.0-0.45","participant_id":"8fp09d0fou","trial_duration":902},{"rt":416,"stimulus":"stimuli/Delboeuf_str0_diff-0.231538.png","response":"arrowright","screen":"Trial","block":"Delboeuf","correct_response":"arrowright","trial_type":"image-keyboard-response","trial_index":96,"time_elapsed":113461,"internal_node_id":"0.0-3.0-2.0-1.45","participant_id":"8fp09d0fou","prestimulus_duration":907,"correct":true,"type":"Delboeuf","illusion_strength":0,"illusion_difference":-0.23153846153846155,"block_number":1,"trial_number":46},{"rt":null,"stimulus":"<div style=\"font-size:60px;\">+</div>","response":null,"screen":"fixation","trial_type":"html-keyboard-response","trial_index":97,"time_elapsed":114178,"internal_node_id":"0.0-3.0-2.0-0.46","participant_id":"8fp09d0fou","trial_duration":712},{"rt":383,"stimulus":"stimuli/Delboeuf_str0_diff0.871923.png","response":"arrowleft","screen":"Trial","block":"Delboeuf","correct_response":"arrowleft","trial_type":"image-keyboard-response","trial_index":98,"time_elapsed":114572,"internal_node_id":"0.0-3.0-2.0-1.46","participant_id":"8fp09d0fou","prestimulus_duration":717,"correct":true,"type":"Delboeuf","illusion_strength":0,"illusion_difference":0.8719230769230769,"block_number":1,"trial_number":47},{"rt":null,"stimulus":"<div style=\"font-size:60px;\">+</div>","response":null,"screen":"fixation","trial_type":"html-keyboard-response","trial_index":99,"time_elapsed":115421,"internal_node_id":"0.0-3.0-2.0-0.47","participant_id":"8fp09d0fou","trial_duration":847},{"rt":429,"stimulus":"stimuli/Delboeuf_str0_diff-0.257154.png","response":"arrowright","screen":"Trial","block":"Delboeuf","correct_response":"arrowright","trial_type":"image-keyboard-response","trial_index":100,"time_elapsed":115863,"internal_node_id":"0.0-3.0-2.0-1.47","participant_id":"8fp09d0fou","prestimulus_duration":849,"correct":true,"type":"Delboeuf","illusion_strength":0,"illusion_difference":-0.2571538461538462,"block_number":1,"trial_number":48},{"rt":null,"stimulus":"<div style=\"font-size:60px;\">+</div>","response":null,"screen":"fixation","trial_type":"html-keyboard-response","trial_index":101,"time_elapsed":116488,"internal_node_id":"0.0-3.0-2.0-0.48","participant_id":"8fp09d0fou","trial_duration":623},{"rt":479,"stimulus":"stimuli/Delboeuf_str0_diff-0.282769.png","response":"arrowright","screen":"Trial","block":"Delboeuf","correct_response":"arrowright","trial_type":"image-keyboard-response","trial_index":102,"time_elapsed":116980,"internal_node_id":"0.0-3.0-2.0-1.48","participant_id":"8fp09d0fou","prestimulus_duration":625,"correct":true,"type":"Delboeuf","illusion_strength":0,"illusion_difference":-0.2827692307692308,"block_number":1,"trial_number":49},{"rt":null,"stimulus":"<div style=\"font-size:60px;\">+</div>","response":null,"screen":"fixation","trial_type":"html-keyboard-response","trial_index":103,"time_elapsed":117488,"internal_node_id":"0.0-3.0-2.0-0.49","participant_id":"8fp09d0fou","trial_duration":505},{"rt":705,"stimulus":"stimuli/Delboeuf_str0_diff0.308385.png","response":"arrowleft","screen":"Trial","block":"Delboeuf","correct_response":"arrowleft","trial_type":"image-keyboard-response","trial_index":104,"time_elapsed":118206,"internal_node_id":"0.0-3.0-2.0-1.49","participant_id":"8fp09d0fou","prestimulus_duration":508,"correct":true,"type":"Delboeuf","illusion_strength":0,"illusion_difference":0.30838461538461537,"block_number":1,"trial_number":50},{"rt":null,"stimulus":"<div style=\"font-size:60px;\">+</div>","response":null,"screen":"fixation","trial_type":"html-keyboard-response","trial_index":105,"time_elapsed":118737,"internal_node_id":"0.0-3.0-2.0-0.50","participant_id":"8fp09d0fou","trial_duration":531},{"rt":472,"stimulus":"stimuli/Delboeuf_str0_diff-0.154692.png","response":"arrowright","screen":"Trial","block":"Delboeuf","correct_response":"arrowright","trial_type":"image-keyboard-response","trial_index":106,"time_elapsed":119221,"internal_node_id":"0.0-3.0-2.0-1.50","participant_id":"8fp09d0fou","prestimulus_duration":531,"correct":true,"type":"Delboeuf","illusion_strength":0,"illusion_difference":-0.15469230769230768,"block_number":1,"trial_number":51},{"rt":null,"stimulus":"<div style=\"font-size:60px;\">+</div>","response":null,"screen":"fixation","trial_type":"html-keyboard-response","trial_index":107,"time_elapsed":120214,"internal_node_id":"0.0-3.0-2.0-0.51","participant_id":"8fp09d0fou","trial_duration":989},{"rt":466,"stimulus":"stimuli/Delboeuf_str0_diff0.410846.png","response":"arrowleft","screen":"Trial","block":"Delboeuf","correct_response":"arrowleft","trial_type":"image-keyboard-response","trial_index":108,"time_elapsed":120693,"internal_node_id":"0.0-3.0-2.0-1.51","participant_id":"8fp09d0fou","prestimulus_duration":993,"correct":true,"type":"Delboeuf","illusion_strength":0,"illusion_difference":0.41084615384615386,"block_number":1,"trial_number":52},{"rt":null,"stimulus":"<div style=\"font-size:60px;\">+</div>","response":null,"screen":"fixation","trial_type":"html-keyboard-response","trial_index":109,"time_elapsed":121434,"internal_node_id":"0.0-3.0-2.0-0.52","participant_id":"8fp09d0fou","trial_duration":737},{"rt":454,"stimulus":"stimuli/Delboeuf_str0_diff0.487692.png","response":"arrowleft","screen":"Trial","block":"Delboeuf","correct_response":"arrowleft","trial_type":"image-keyboard-response","trial_index":110,"time_elapsed":121901,"internal_node_id":"0.0-3.0-2.0-1.52","participant_id":"8fp09d0fou","prestimulus_duration":741,"correct":true,"type":"Delboeuf","illusion_strength":0,"illusion_difference":0.4876923076923077,"block_number":1,"trial_number":53},{"rt":null,"stimulus":"<div style=\"font-size:60px;\">+</div>","response":null,"screen":"fixation","trial_type":"html-keyboard-response","trial_index":111,"time_elapsed":122893,"internal_node_id":"0.0-3.0-2.0-0.53","participant_id":"8fp09d0fou","trial_duration":990},{"rt":467,"stimulus":"stimuli/Delboeuf_str0_diff0.897538.png","response":"arrowleft","screen":"Trial","block":"Delboeuf","correct_response":"arrowleft","trial_type":"image-keyboard-response","trial_index":112,"time_elapsed":123374,"internal_node_id":"0.0-3.0-2.0-1.53","participant_id":"8fp09d0fou","prestimulus_duration":992,"correct":true,"type":"Delboeuf","illusion_strength":0,"illusion_difference":0.8975384615384616,"block_number":1,"trial_number":54},{"rt":null,"stimulus":"<div style=\"font-size:60px;\">+</div>","response":null,"screen":"fixation","trial_type":"html-keyboard-response","trial_index":113,"time_elapsed":124080,"internal_node_id":"0.0-3.0-2.0-0.54","participant_id":"8fp09d0fou","trial_duration":703},{"rt":664,"stimulus":"stimuli/Delboeuf_str0_diff-0.410846.png","response":"arrowright","screen":"Trial","block":"Delboeuf","correct_response":"arrowright","trial_type":"image-keyboard-response","trial_index":114,"time_elapsed":124757,"internal_node_id":"0.0-3.0-2.0-1.54","participant_id":"8fp09d0fou","prestimulus_duration":706,"correct":true,"type":"Delboeuf","illusion_strength":0,"illusion_difference":-0.41084615384615386,"block_number":1,"trial_number":55},{"rt":null,"stimulus":"<div style=\"font-size:60px;\">+</div>","response":null,"screen":"fixation","trial_type":"html-keyboard-response","trial_index":115,"time_elapsed":125537,"internal_node_id":"0.0-3.0-2.0-0.55","participant_id":"8fp09d0fou","trial_duration":774},{"rt":432,"stimulus":"stimuli/Delboeuf_str0_diff0.103462.png","response":"arrowright","screen":"Trial","block":"Delboeuf","correct_response":"arrowleft","trial_type":"image-keyboard-response","trial_index":116,"time_elapsed":125981,"internal_node_id":"0.0-3.0-2.0-1.55","participant_id":"8fp09d0fou","prestimulus_duration":780,"correct":false,"type":"Delboeuf","illusion_strength":0,"illusion_difference":0.10346153846153847,"block_number":1,"trial_number":56},{"rt":null,"stimulus":"<div style=\"font-size:60px;\">+</div>","response":null,"screen":"fixation","trial_type":"html-keyboard-response","trial_index":117,"time_elapsed":126934,"internal_node_id":"0.0-3.0-2.0-0.56","participant_id":"8fp09d0fou","trial_duration":948},{"rt":437,"stimulus":"stimuli/Delboeuf_str0_diff-0.103462.png","response":"arrowright","screen":"Trial","block":"Delboeuf","correct_response":"arrowright","trial_type":"image-keyboard-response","trial_index":118,"time_elapsed":127383,"internal_node_id":"0.0-3.0-2.0-1.56","participant_id":"8fp09d0fou","prestimulus_duration":953,"correct":true,"type":"Delboeuf","illusion_strength":0,"illusion_difference":-0.10346153846153847,"block_number":1,"trial_number":57},{"rt":null,"stimulus":"<div style=\"font-size:60px;\">+</div>","response":null,"screen":"fixation","trial_type":"html-keyboard-response","trial_index":119,"time_elapsed":128253,"internal_node_id":"0.0-3.0-2.0-0.57","participant_id":"8fp09d0fou","trial_duration":867},{"rt":570,"stimulus":"stimuli/Delboeuf_str0_diff0.538923.png","response":"arrowleft","screen":"Trial","block":"Delboeuf","correct_response":"arrowleft","trial_type":"image-keyboard-response","trial_index":120,"time_elapsed":128837,"internal_node_id":"0.0-3.0-2.0-1.57","participant_id":"8fp09d0fou","prestimulus_duration":870,"correct":true,"type":"Delboeuf","illusion_strength":0,"illusion_difference":0.538923076923077,"block_number":1,"trial_number":58},{"rt":null,"stimulus":"<div style=\"font-size:60px;\">+</div>","response":null,"screen":"fixation","trial_type":"html-keyboard-response","trial_index":121,"time_elapsed":129477,"internal_node_id":"0.0-3.0-2.0-0.58","participant_id":"8fp09d0fou","trial_duration":636},{"rt":483,"stimulus":"stimuli/Delboeuf_str0_diff0.641385.png","response":"arrowleft","screen":"Trial","block":"Delboeuf","correct_response":"arrowleft","trial_type":"image-keyboard-response","trial_index":122,"time_elapsed":129974,"internal_node_id":"0.0-3.0-2.0-1.58","participant_id":"8fp09d0fou","prestimulus_duration":640,"correct":true,"type":"Delboeuf","illusion_strength":0,"illusion_difference":0.6413846153846154,"block_number":1,"trial_number":59},{"rt":null,"stimulus":"<div style=\"font-size:60px;\">+</div>","response":null,"screen":"fixation","trial_type":"html-keyboard-response","trial_index":123,"time_elapsed":130837,"internal_node_id":"0.0-3.0-2.0-0.59","participant_id":"8fp09d0fou","trial_duration":860},{"rt":500,"stimulus":"stimuli/Delboeuf_str0_diff-0.692615.png","response":"arrowright","screen":"Trial","block":"Delboeuf","correct_response":"arrowright","trial_type":"image-keyboard-response","trial_index":124,"time_elapsed":131349,"internal_node_id":"0.0-3.0-2.0-1.59","participant_id":"8fp09d0fou","prestimulus_duration":863,"correct":true,"type":"Delboeuf","illusion_strength":0,"illusion_difference":-0.6926153846153846,"block_number":1,"trial_number":60},{"rt":null,"stimulus":"<div style=\"font-size:60px;\">+</div>","response":null,"screen":"fixation","trial_type":"html-keyboard-response","trial_index":125,"time_elapsed":131910,"internal_node_id":"0.0-3.0-2.0-0.60","participant_id":"8fp09d0fou","trial_duration":557},{"rt":428,"stimulus":"stimuli/Delboeuf_str0_diff-0.180308.png","response":"arrowright","screen":"Trial","block":"Delboeuf","correct_response":"arrowright","trial_type":"image-keyboard-response","trial_index":126,"time_elapsed":132350,"internal_node_id":"0.0-3.0-2.0-1.60","participant_id":"8fp09d0fou","prestimulus_duration":561,"correct":true,"type":"Delboeuf","illusion_strength":0,"illusion_difference":-0.1803076923076923,"block_number":1,"trial_number":61},{"rt":null,"stimulus":"<div style=\"font-size:60px;\">+</div>","response":null,"screen":"fixation","trial_type":"html-keyboard-response","trial_index":127,"time_elapsed":133003,"internal_node_id":"0.0-3.0-2.0-0.61","participant_id":"8fp09d0fou","trial_duration":649},{"rt":414,"stimulus":"stimuli/Delboeuf_str0_diff-0.795077.png","response":"arrowright","screen":"Trial","block":"Delboeuf","correct_response":"arrowright","trial_type":"image-keyboard-response","trial_index":128,"time_elapsed":133430,"internal_node_id":"0.0-3.0-2.0-1.61","participant_id":"8fp09d0fou","prestimulus_duration":653,"correct":true,"type":"Delboeuf","illusion_strength":0,"illusion_difference":-0.7950769230769231,"block_number":1,"trial_number":62},{"rt":null,"stimulus":"<div style=\"font-size:60px;\">+</div>","response":null,"screen":"fixation","trial_type":"html-keyboard-response","trial_index":129,"time_elapsed":134235,"internal_node_id":"0.0-3.0-2.0-0.62","participant_id":"8fp09d0fou","trial_duration":804},{"rt":502,"stimulus":"stimuli/Delboeuf_str0_diff-0.359615.png","response":"arrowright","screen":"Trial","block":"Delboeuf","correct_response":"arrowright","trial_type":"image-keyboard-response","trial_index":130,"time_elapsed":134750,"internal_node_id":"0.0-3.0-2.0-1.62","participant_id":"8fp09d0fou","prestimulus_duration":805,"correct":true,"type":"Delboeuf","illusion_strength":0,"illusion_difference":-0.3596153846153846,"block_number":1,"trial_number":63},{"rt":null,"stimulus":"<div style=\"font-size:60px;\">+</div>","response":null,"screen":"fixation","trial_type":"html-keyboard-response","trial_index":131,"time_elapsed":135654,"internal_node_id":"0.0-3.0-2.0-0.63","participant_id":"8fp09d0fou","trial_duration":900},{"rt":444,"stimulus":"stimuli/Delboeuf_str0_diff0.513308.png","response":"arrowleft","screen":"Trial","block":"Delboeuf","correct_response":"arrowleft","trial_type":"image-keyboard-response","trial_index":132,"time_elapsed":136110,"internal_node_id":"0.0-3.0-2.0-1.63","participant_id":"8fp09d0fou","prestimulus_duration":904,"correct":true,"type":"Delboeuf","illusion_strength":0,"illusion_difference":0.5133076923076924,"block_number":1,"trial_number":64},{"rt":null,"stimulus":"<div style=\"font-size:60px;\">+</div>","response":null,"screen":"fixation","trial_type":"html-keyboard-response","trial_index":133,"time_elapsed":136894,"internal_node_id":"0.0-3.0-2.0-0.64","participant_id":"8fp09d0fou","trial_duration":782},{"rt":859,"stimulus":"stimuli/Delboeuf_str0_diff-0.052231.png","response":"arrowleft","screen":"Trial","block":"Delboeuf","correct_response":"arrowright","trial_type":"image-keyboard-response","trial_index":134,"time_elapsed":137766,"internal_node_id":"0.0-3.0-2.0-1.64","participant_id":"8fp09d0fou","prestimulus_duration":784,"correct":false,"type":"Delboeuf","illusion_strength":0,"illusion_difference":-0.05223076923076923,"block_number":1,"trial_number":65},{"rt":null,"stimulus":"<div style=\"font-size:60px;\">+</div>","response":null,"screen":"fixation","trial_type":"html-keyboard-response","trial_index":135,"time_elapsed":138661,"internal_node_id":"0.0-3.0-2.0-0.65","participant_id":"8fp09d0fou","trial_duration":890},{"rt":437,"stimulus":"stimuli/Delboeuf_str0_diff0.795077.png","response":"arrowleft","screen":"Trial","block":"Delboeuf","correct_response":"arrowleft","trial_type":"image-keyboard-response","trial_index":136,"time_elapsed":139111,"internal_node_id":"0.0-3.0-2.0-1.65","participant_id":"8fp09d0fou","prestimulus_duration":895,"correct":true,"type":"Delboeuf","illusion_strength":0,"illusion_difference":0.7950769230769231,"block_number":1,"trial_number":66},{"rt":null,"stimulus":"<div style=\"font-size:60px;\">+</div>","response":null,"screen":"fixation","trial_type":"html-keyboard-response","trial_index":137,"time_elapsed":139785,"internal_node_id":"0.0-3.0-2.0-0.66","participant_id":"8fp09d0fou","trial_duration":673},{"rt":448,"stimulus":"stimuli/Delboeuf_str0_diff-0.846308.png","response":"arrowright","screen":"Trial","block":"Delboeuf","correct_response":"arrowright","trial_type":"image-keyboard-response","trial_index":138,"time_elapsed":140246,"internal_node_id":"0.0-3.0-2.0-1.66","participant_id":"8fp09d0fou","prestimulus_duration":674,"correct":true,"type":"Delboeuf","illusion_strength":0,"illusion_difference":-0.8463076923076923,"block_number":1,"trial_number":67},{"rt":null,"stimulus":"<div style=\"font-size:60px;\">+</div>","response":null,"screen":"fixation","trial_type":"html-keyboard-response","trial_index":139,"time_elapsed":140953,"internal_node_id":"0.0-3.0-2.0-0.67","participant_id":"8fp09d0fou","trial_duration":706},{"rt":465,"stimulus":"stimuli/Delboeuf_str0_diff0.590154.png","response":"arrowleft","screen":"Trial","block":"Delboeuf","correct_response":"arrowleft","trial_type":"image-keyboard-response","trial_index":140,"time_elapsed":141431,"internal_node_id":"0.0-3.0-2.0-1.67","participant_id":"8fp09d0fou","prestimulus_duration":707,"correct":true,"type":"Delboeuf","illusion_strength":0,"illusion_difference":0.5901538461538461,"block_number":1,"trial_number":68},{"rt":null,"stimulus":"<div style=\"font-size:60px;\">+</div>","response":null,"screen":"fixation","trial_type":"html-keyboard-response","trial_index":141,"time_elapsed":142044,"internal_node_id":"0.0-3.0-2.0-0.68","participant_id":"8fp09d0fou","trial_duration":612},{"rt":557,"stimulus":"stimuli/Delboeuf_str0_diff0.334.png","response":"arrowleft","screen":"Trial","block":"Delboeuf","correct_response":"arrowleft","trial_type":"image-keyboard-response","trial_index":142,"time_elapsed":142614,"internal_node_id":"0.0-3.0-2.0-1.68","participant_id":"8fp09d0fou","prestimulus_duration":613,"correct":true,"type":"Delboeuf","illusion_strength":0,"illusion_difference":0.334,"block_number":1,"trial_number":69},{"rt":null,"stimulus":"<div style=\"font-size:60px;\">+</div>","response":null,"screen":"fixation","trial_type":"html-keyboard-response","trial_index":143,"time_elapsed":143433,"internal_node_id":"0.0-3.0-2.0-0.69","participant_id":"8fp09d0fou","trial_duration":818},{"rt":487,"stimulus":"stimuli/Delboeuf_str0_diff-0.513308.png","response":"arrowright","screen":"Trial","block":"Delboeuf","correct_response":"arrowright","trial_type":"image-keyboard-response","trial_index":144,"time_elapsed":143933,"internal_node_id":"0.0-3.0-2.0-1.69","participant_id":"8fp09d0fou","prestimulus_duration":819,"correct":true,"type":"Delboeuf","illusion_strength":0,"illusion_difference":-0.5133076923076924,"block_number":1,"trial_number":70},{"rt":null,"stimulus":"<div style=\"font-size:60px;\">+</div>","response":null,"screen":"fixation","trial_type":"html-keyboard-response","trial_index":145,"time_elapsed":144911,"internal_node_id":"0.0-3.0-2.0-0.70","participant_id":"8fp09d0fou","trial_duration":974},{"rt":427,"stimulus":"stimuli/Delboeuf_str0_diff-0.974385.png","response":"arrowright","screen":"Trial","block":"Delboeuf","correct_response":"arrowright","trial_type":"image-keyboard-response","trial_index":146,"time_elapsed":145350,"internal_node_id":"0.0-3.0-2.0-1.70","participant_id":"8fp09d0fou","prestimulus_duration":978,"correct":true,"type":"Delboeuf","illusion_strength":0,"illusion_difference":-0.9743846153846154,"block_number":1,"trial_number":71},{"rt":null,"stimulus":"<div style=\"font-size:60px;\">+</div>","response":null,"screen":"fixation","trial_type":"html-keyboard-response","trial_index":147,"time_elapsed":146302,"internal_node_id":"0.0-3.0-2.0-0.71","participant_id":"8fp09d0fou","trial_duration":951},{"rt":530,"stimulus":"stimuli/Delboeuf_str0_diff-0.205923.png","response":"arrowright","screen":"Trial","block":"Delboeuf","correct_response":"arrowright","trial_type":"image-keyboard-response","trial_index":148,"time_elapsed":146845,"internal_node_id":"0.0-3.0-2.0-1.71","participant_id":"8fp09d0fou","prestimulus_duration":952,"correct":true,"type":"Delboeuf","illusion_strength":0,"illusion_difference":-0.20592307692307693,"block_number":1,"trial_number":72},{"rt":null,"stimulus":"<div style=\"font-size:60px;\">+</div>","response":null,"screen":"fixation","trial_type":"html-keyboard-response","trial_index":149,"time_elapsed":147578,"internal_node_id":"0.0-3.0-2.0-0.72","participant_id":"8fp09d0fou","trial_duration":728},{"rt":452,"stimulus":"stimuli/Delboeuf_str0_diff-0.820692.png","response":"arrowright","screen":"Trial","block":"Delboeuf","correct_response":"arrowright","trial_type":"image-keyboard-response","trial_index":150,"time_elapsed":148043,"internal_node_id":"0.0-3.0-2.0-1.72","participant_id":"8fp09d0fou","prestimulus_duration":733,"correct":true,"type":"Delboeuf","illusion_strength":0,"illusion_difference":-0.8206923076923077,"block_number":1,"trial_number":73},{"rt":null,"stimulus":"<div style=\"font-size:60px;\">+</div>","response":null,"screen":"fixation","trial_type":"html-keyboard-response","trial_index":151,"time_elapsed":148762,"internal_node_id":"0.0-3.0-2.0-0.73","participant_id":"8fp09d0fou","trial_duration":717},{"rt":672,"stimulus":"stimuli/Delboeuf_str0_diff-0.718231.png","response":"arrowright","screen":"Trial","block":"Delboeuf","correct_response":"arrowright","trial_type":"image-keyboard-response","trial_index":152,"time_elapsed":149447,"internal_node_id":"0.0-3.0-2.0-1.73","participant_id":"8fp09d0fou","prestimulus_duration":719,"correct":true,"type":"Delboeuf","illusion_strength":0,"illusion_difference":-0.7182307692307692,"block_number":1,"trial_number":74},{"rt":null,"stimulus":"<div style=\"font-size:60px;\">+</div>","response":null,"screen":"fixation","trial_type":"html-keyboard-response","trial_index":153,"time_elapsed":150308,"internal_node_id":"0.0-3.0-2.0-0.74","participant_id":"8fp09d0fou","trial_duration":857},{"rt":422,"stimulus":"stimuli/Delboeuf_str0_diff-1.0.png","response":"arrowright","screen":"Trial","block":"Delboeuf","correct_response":"arrowright","trial_type":"image-keyboard-response","trial_index":154,"time_elapsed":150741,"internal_node_id":"0.0-3.0-2.0-1.74","participant_id":"8fp09d0fou","prestimulus_duration":861,"correct":true,"type":"Delboeuf","illusion_strength":0,"illusion_difference":-1,"block_number":1,"trial_number":75},{"rt":null,"stimulus":"<div style=\"font-size:60px;\">+</div>","response":null,"screen":"fixation","trial_type":"html-keyboard-response","trial_index":155,"time_elapsed":151479,"internal_node_id":"0.0-3.0-2.0-0.75","participant_id":"8fp09d0fou","trial_duration":734},{"rt":420,"stimulus":"stimuli/Delboeuf_str0_diff-0.077846.png","response":"arrowright","screen":"Trial","block":"Delboeuf","correct_response":"arrowright","trial_type":"image-keyboard-response","trial_index":156,"time_elapsed":151911,"internal_node_id":"0.0-3.0-2.0-1.75","participant_id":"8fp09d0fou","prestimulus_duration":738,"correct":true,"type":"Delboeuf","illusion_strength":0,"illusion_difference":-0.07784615384615384,"block_number":1,"trial_number":76},{"rt":null,"stimulus":"<div style=\"font-size:60px;\">+</div>","response":null,"screen":"fixation","trial_type":"html-keyboard-response","trial_index":157,"time_elapsed":152632,"internal_node_id":"0.0-3.0-2.0-0.76","participant_id":"8fp09d0fou","trial_duration":722},{"rt":688,"stimulus":"stimuli/Delboeuf_str0_diff-0.923154.png","response":"arrowright","screen":"Trial","block":"Delboeuf","correct_response":"arrowright","trial_type":"image-keyboard-response","trial_index":158,"time_elapsed":153333,"internal_node_id":"0.0-3.0-2.0-1.76","participant_id":"8fp09d0fou","prestimulus_duration":721,"correct":true,"type":"Delboeuf","illusion_strength":0,"illusion_difference":-0.9231538461538462,"block_number":1,"trial_number":77},{"rt":null,"stimulus":"<div style=\"font-size:60px;\">+</div>","response":null,"screen":"fixation","trial_type":"html-keyboard-response","trial_index":159,"time_elapsed":154129,"internal_node_id":"0.0-3.0-2.0-0.77","participant_id":"8fp09d0fou","trial_duration":793},{"rt":408,"stimulus":"stimuli/Delboeuf_str0_diff-0.641385.png","response":"arrowright","screen":"Trial","block":"Delboeuf","correct_response":"arrowright","trial_type":"image-keyboard-response","trial_index":160,"time_elapsed":154549,"internal_node_id":"0.0-3.0-2.0-1.77","participant_id":"8fp09d0fou","prestimulus_duration":796,"correct":true,"type":"Delboeuf","illusion_strength":0,"illusion_difference":-0.6413846153846154,"block_number":1,"trial_number":78},{"rt":null,"stimulus":"<div style=\"font-size:60px;\">+</div>","response":null,"screen":"fixation","trial_type":"html-keyboard-response","trial_index":161,"time_elapsed":155427,"internal_node_id":"0.0-3.0-2.0-0.78","participant_id":"8fp09d0fou","trial_duration":874},{"rt":446,"stimulus":"stimuli/Delboeuf_str0_diff-0.667.png","response":"arrowright","screen":"Trial","block":"Delboeuf","correct_response":"arrowright","trial_type":"image-keyboard-response","trial_index":162,"time_elapsed":155887,"internal_node_id":"0.0-3.0-2.0-1.78","participant_id":"8fp09d0fou","prestimulus_duration":878,"correct":true,"type":"Delboeuf","illusion_strength":0,"illusion_difference":-0.667,"block_number":1,"trial_number":79},{"rt":null,"stimulus":"<div style=\"font-size:60px;\">+</div>","response":null,"screen":"fixation","trial_type":"html-keyboard-response","trial_index":163,"time_elapsed":156511,"internal_node_id":"0.0-3.0-2.0-0.79","participant_id":"8fp09d0fou","trial_duration":620},{"rt":747,"stimulus":"stimuli/Delboeuf_str0_diff0.026615.png","response":"arrowleft","screen":"Trial","block":"Delboeuf","correct_response":"arrowleft","trial_type":"image-keyboard-response","trial_index":164,"time_elapsed":157269,"internal_node_id":"0.0-3.0-2.0-1.79","participant_id":"8fp09d0fou","prestimulus_duration":624,"correct":true,"type":"Delboeuf","illusion_strength":0,"illusion_difference":0.026615384615384617,"block_number":1,"trial_number":80},{"rt":2651,"stimulus":"<p>Great job!</p><p>Can you do better in the next block?</p>","response":0,"screen":"block_results","trial_type":"html-button-response","trial_index":165,"time_elapsed":159922,"internal_node_id":"0.0-3.0-3.0","participant_id":"8fp09d0fou"},{"success":true,"timeout":false,"failed_images":[],"failed_audio":[],"failed_video":[],"trial_type":"preload","trial_index":166,"time_elapsed":160354,"internal_node_id":"0.0-4.0-0.0","participant_id":"8fp09d0fou"},{"rt":4830,"stimulus":"<p><b>Part 2</b></p><p>In this part, two horizontal red lines will appear one above the other.</p><p>Your task is to select which <b>line is longer</b> in length as fast as you can, without making errors.</p><p>Press <b>the UP or the DOWN arrow</b> to indicate where is the longer <b>red line.</b></p><div style='float: center'><img src='utils/stimuli_demo/MullerLyer_Demo.png' height='300'></img><p><img src='utils/answer/answer_updown_keyboard.PNG' height='150'></img></p><p class='small'>In this example, the correct answer is the <b>UP arrow</b>.</p></div><p>Are you ready? <b>Press ENTER to start</b></p>","response":"enter","trial_type":"html-keyboard-response","trial_index":167,"time_elapsed":165184,"internal_node_id":"0.0-4.0-1.0","participant_id":"8fp09d0fou"},{"rt":null,"stimulus":"<div style=\"font-size:60px;\">+</div>","response":null,"screen":"fixation","trial_type":"html-keyboard-response","trial_index":168,"time_elapsed":166520,"internal_node_id":"0.0-4.0-2.0-0.0","participant_id":"8fp09d0fou","trial_duration":831},{"rt":992,"stimulus":"stimuli/MullerLyer_str0_diff0.154.png","response":"arrowup","screen":"Trial","block":"MullerLyer","correct_response":"arrowup","trial_type":"image-keyboard-response","trial_index":169,"time_elapsed":167525,"internal_node_id":"0.0-4.0-2.0-1.0","participant_id":"8fp09d0fou","prestimulus_duration":1336,"correct":true,"type":"MullerLyer","illusion_strength":0,"illusion_difference":0.154,"block_number":2,"trial_number":1},{"rt":null,"stimulus":"<div style=\"font-size:60px;\">+</div>","response":null,"screen":"fixation","trial_type":"html-keyboard-response","trial_index":170,"time_elapsed":168044,"internal_node_id":"0.0-4.0-2.0-0.1","participant_id":"8fp09d0fou","trial_duration":516},{"rt":613,"stimulus":"stimuli/MullerLyer_str0_diff-0.165769.png","response":"arrowdown","screen":"Trial","block":"MullerLyer","correct_response":"arrowdown","trial_type":"image-keyboard-response","trial_index":171,"time_elapsed":168669,"internal_node_id":"0.0-4.0-2.0-1.1","participant_id":"8fp09d0fou","prestimulus_duration":519,"correct":true,"type":"MullerLyer","illusion_strength":0,"illusion_difference":-0.16576923076923078,"block_number":2,"trial_number":2},{"rt":null,"stimulus":"<div style=\"font-size:60px;\">+</div>","response":null,"screen":"fixation","trial_type":"html-keyboard-response","trial_index":172,"time_elapsed":169287,"internal_node_id":"0.0-4.0-2.0-0.2","participant_id":"8fp09d0fou","trial_duration":615},{"rt":625,"stimulus":"stimuli/MullerLyer_str0_diff0.036308.png","response":"arrowdown","screen":"Trial","block":"MullerLyer","correct_response":"arrowup","trial_type":"image-keyboard-response","trial_index":173,"time_elapsed":169925,"internal_node_id":"0.0-4.0-2.0-1.2","participant_id":"8fp09d0fou","prestimulus_duration":618,"correct":false,"type":"MullerLyer","illusion_strength":0,"illusion_difference":0.03630769230769231,"block_number":2,"trial_number":3},{"rt":null,"stimulus":"<div style=\"font-size:60px;\">+</div>","response":null,"screen":"fixation","trial_type":"html-keyboard-response","trial_index":174,"time_elapsed":170846,"internal_node_id":"0.0-4.0-2.0-0.3","participant_id":"8fp09d0fou","trial_duration":916},{"rt":788,"stimulus":"stimuli/MullerLyer_str0_diff0.354077.png","response":"arrowup","screen":"Trial","block":"MullerLyer","correct_response":"arrowup","trial_type":"image-keyboard-response","trial_index":175,"time_elapsed":171646,"internal_node_id":"0.0-4.0-2.0-1.3","participant_id":"8fp09d0fou","prestimulus_duration":921,"correct":true,"type":"MullerLyer","illusion_strength":0,"illusion_difference":0.35407692307692307,"block_number":2,"trial_number":4},{"rt":null,"stimulus":"<div style=\"font-size:60px;\">+</div>","response":null,"screen":"fixation","trial_type":"html-keyboard-response","trial_index":176,"time_elapsed":172466,"internal_node_id":"0.0-4.0-2.0-0.4","participant_id":"8fp09d0fou","trial_duration":818},{"rt":616,"stimulus":"stimuli/MullerLyer_str0_diff0.083385.png","response":"arrowup","screen":"Trial","block":"MullerLyer","correct_response":"arrowup","trial_type":"image-keyboard-response","trial_index":177,"time_elapsed":173094,"internal_node_id":"0.0-4.0-2.0-1.4","participant_id":"8fp09d0fou","prestimulus_duration":820,"correct":true,"type":"MullerLyer","illusion_strength":0,"illusion_difference":0.08338461538461539,"block_number":2,"trial_number":5},{"rt":null,"stimulus":"<div style=\"font-size:60px;\">+</div>","response":null,"screen":"fixation","trial_type":"html-keyboard-response","trial_index":178,"time_elapsed":173836,"internal_node_id":"0.0-4.0-2.0-0.5","participant_id":"8fp09d0fou","trial_duration":741},{"rt":622,"stimulus":"stimuli/MullerLyer_str0_diff-0.377615.png","response":"arrowdown","screen":"Trial","block":"MullerLyer","correct_response":"arrowdown","trial_type":"image-keyboard-response","trial_index":179,"time_elapsed":174470,"internal_node_id":"0.0-4.0-2.0-1.5","participant_id":"8fp09d0fou","prestimulus_duration":742,"correct":true,"type":"MullerLyer","illusion_strength":0,"illusion_difference":-0.37761538461538463,"block_number":2,"trial_number":6},{"rt":null,"stimulus":"<div style=\"font-size:60px;\">+</div>","response":null,"screen":"fixation","trial_type":"html-keyboard-response","trial_index":180,"time_elapsed":175158,"internal_node_id":"0.0-4.0-2.0-0.6","participant_id":"8fp09d0fou","trial_duration":682},{"rt":667,"stimulus":"stimuli/MullerLyer_str0_diff-0.354077.png","response":"arrowdown","screen":"Trial","block":"MullerLyer","correct_response":"arrowdown","trial_type":"image-keyboard-response","trial_index":181,"time_elapsed":175837,"internal_node_id":"0.0-4.0-2.0-1.6","participant_id":"8fp09d0fou","prestimulus_duration":688,"correct":true,"type":"MullerLyer","illusion_strength":0,"illusion_difference":-0.35407692307692307,"block_number":2,"trial_number":7},{"rt":null,"stimulus":"<div style=\"font-size:60px;\">+</div>","response":null,"screen":"fixation","trial_type":"html-keyboard-response","trial_index":182,"time_elapsed":176645,"internal_node_id":"0.0-4.0-2.0-0.7","participant_id":"8fp09d0fou","trial_duration":804},{"rt":542,"stimulus":"stimuli/MullerLyer_str0_diff0.059846.png","response":"arrowup","screen":"Trial","block":"MullerLyer","correct_response":"arrowup","trial_type":"image-keyboard-response","trial_index":183,"time_elapsed":177198,"internal_node_id":"0.0-4.0-2.0-1.7","participant_id":"8fp09d0fou","prestimulus_duration":808,"correct":true,"type":"MullerLyer","illusion_strength":0,"illusion_difference":0.05984615384615385,"block_number":2,"trial_number":8},{"rt":null,"stimulus":"<div style=\"font-size:60px;\">+</div>","response":null,"screen":"fixation","trial_type":"html-keyboard-response","trial_index":184,"time_elapsed":177751,"internal_node_id":"0.0-4.0-2.0-0.8","participant_id":"8fp09d0fou","trial_duration":550},{"rt":442,"stimulus":"stimuli/MullerLyer_str0_diff-0.318769.png","response":"arrowdown","screen":"Trial","block":"MullerLyer","correct_response":"arrowdown","trial_type":"image-keyboard-response","trial_index":185,"time_elapsed":178206,"internal_node_id":"0.0-4.0-2.0-1.8","participant_id":"8fp09d0fou","prestimulus_duration":553,"correct":true,"type":"MullerLyer","illusion_strength":0,"illusion_difference":-0.3187692307692308,"block_number":2,"trial_number":9},{"rt":null,"stimulus":"<div style=\"font-size:60px;\">+</div>","response":null,"screen":"fixation","trial_type":"html-keyboard-response","trial_index":186,"time_elapsed":178770,"internal_node_id":"0.0-4.0-2.0-0.9","participant_id":"8fp09d0fou","trial_duration":559},{"rt":405,"stimulus":"stimuli/MullerLyer_str0_diff-0.46.png","response":"arrowdown","screen":"Trial","block":"MullerLyer","correct_response":"arrowdown","trial_type":"image-keyboard-response","trial_index":187,"time_elapsed":179190,"internal_node_id":"0.0-4.0-2.0-1.9","participant_id":"8fp09d0fou","prestimulus_duration":564,"correct":true,"type":"MullerLyer","illusion_strength":0,"illusion_difference":-0.46,"block_number":2,"trial_number":10},{"rt":null,"stimulus":"<div style=\"font-size:60px;\">+</div>","response":null,"screen":"fixation","trial_type":"html-keyboard-response","trial_index":188,"time_elapsed":179952,"internal_node_id":"0.0-4.0-2.0-0.10","participant_id":"8fp09d0fou","trial_duration":759},{"rt":417,"stimulus":"stimuli/MullerLyer_str0_diff-0.412923.png","response":"arrowdown","screen":"Trial","block":"MullerLyer","correct_response":"arrowdown","trial_type":"image-keyboard-response","trial_index":189,"time_elapsed":180381,"internal_node_id":"0.0-4.0-2.0-1.10","participant_id":"8fp09d0fou","prestimulus_duration":762,"correct":true,"type":"MullerLyer","illusion_strength":0,"illusion_difference":-0.41292307692307695,"block_number":2,"trial_number":11},{"rt":null,"stimulus":"<div style=\"font-size:60px;\">+</div>","response":null,"screen":"fixation","trial_type":"html-keyboard-response","trial_index":190,"time_elapsed":181252,"internal_node_id":"0.0-4.0-2.0-0.11","participant_id":"8fp09d0fou","trial_duration":865},{"rt":524,"stimulus":"stimuli/MullerLyer_str0_diff0.342308.png","response":"arrowup","screen":"Trial","block":"MullerLyer","correct_response":"arrowup","trial_type":"image-keyboard-response","trial_index":191,"time_elapsed":181790,"internal_node_id":"0.0-4.0-2.0-1.11","participant_id":"8fp09d0fou","prestimulus_duration":871,"correct":true,"type":"MullerLyer","illusion_strength":0,"illusion_difference":0.3423076923076923,"block_number":2,"trial_number":12},{"rt":null,"stimulus":"<div style=\"font-size:60px;\">+</div>","response":null,"screen":"fixation","trial_type":"html-keyboard-response","trial_index":192,"time_elapsed":182346,"internal_node_id":"0.0-4.0-2.0-0.12","participant_id":"8fp09d0fou","trial_duration":551},{"rt":464,"stimulus":"stimuli/MullerLyer_str0_diff-0.424692.png","response":"arrowdown","screen":"Trial","block":"MullerLyer","correct_response":"arrowdown","trial_type":"image-keyboard-response","trial_index":193,"time_elapsed":182821,"internal_node_id":"0.0-4.0-2.0-1.12","participant_id":"8fp09d0fou","prestimulus_duration":556,"correct":true,"type":"MullerLyer","illusion_strength":0,"illusion_difference":-0.4246923076923077,"block_number":2,"trial_number":13},{"rt":null,"stimulus":"<div style=\"font-size:60px;\">+</div>","response":null,"screen":"fixation","trial_type":"html-keyboard-response","trial_index":194,"time_elapsed":183389,"internal_node_id":"0.0-4.0-2.0-0.13","participant_id":"8fp09d0fou","trial_duration":564},{"rt":853,"stimulus":"stimuli/MullerLyer_str0_diff-0.048077.png","response":"arrowup","screen":"Trial","block":"MullerLyer","correct_response":"arrowdown","trial_type":"image-keyboard-response","trial_index":195,"time_elapsed":184254,"internal_node_id":"0.0-4.0-2.0-1.13","participant_id":"8fp09d0fou","prestimulus_duration":568,"correct":false,"type":"MullerLyer","illusion_strength":0,"illusion_difference":-0.04807692307692308,"block_number":2,"trial_number":14},{"rt":null,"stimulus":"<div style=\"font-size:60px;\">+</div>","response":null,"screen":"fixation","trial_type":"html-keyboard-response","trial_index":196,"time_elapsed":185026,"internal_node_id":"0.0-4.0-2.0-0.14","participant_id":"8fp09d0fou","trial_duration":768},{"rt":623,"stimulus":"stimuli/MullerLyer_str0_diff0.048077.png","response":"arrowup","screen":"Trial","block":"MullerLyer","correct_response":"arrowup","trial_type":"image-keyboard-response","trial_index":197,"time_elapsed":185662,"internal_node_id":"0.0-4.0-2.0-1.14","participant_id":"8fp09d0fou","prestimulus_duration":772,"correct":true,"type":"MullerLyer","illusion_strength":0,"illusion_difference":0.04807692307692308,"block_number":2,"trial_number":15},{"rt":null,"stimulus":"<div style=\"font-size:60px;\">+</div>","response":null,"screen":"fixation","trial_type":"html-keyboard-response","trial_index":198,"time_elapsed":186184,"internal_node_id":"0.0-4.0-2.0-0.15","participant_id":"8fp09d0fou","trial_duration":521},{"rt":488,"stimulus":"stimuli/MullerLyer_str0_diff-0.259923.png","response":"arrowdown","screen":"Trial","block":"MullerLyer","correct_response":"arrowdown","trial_type":"image-keyboard-response","trial_index":199,"time_elapsed":186686,"internal_node_id":"0.0-4.0-2.0-1.15","participant_id":"8fp09d0fou","prestimulus_duration":522,"correct":true,"type":"MullerLyer","illusion_strength":0,"illusion_difference":-0.2599230769230769,"block_number":2,"trial_number":16},{"rt":null,"stimulus":"<div style=\"font-size:60px;\">+</div>","response":null,"screen":"fixation","trial_type":"html-keyboard-response","trial_index":200,"time_elapsed":187509,"internal_node_id":"0.0-4.0-2.0-0.16","participant_id":"8fp09d0fou","trial_duration":820},{"rt":812,"stimulus":"stimuli/MullerLyer_str0_diff0.024538.png","response":"arrowup","screen":"Trial","block":"MullerLyer","correct_response":"arrowup","trial_type":"image-keyboard-response","trial_index":201,"time_elapsed":188333,"internal_node_id":"0.0-4.0-2.0-1.16","participant_id":"8fp09d0fou","prestimulus_duration":823,"correct":true,"type":"MullerLyer","illusion_strength":0,"illusion_difference":0.02453846153846154,"block_number":2,"trial_number":17},{"rt":null,"stimulus":"<div style=\"font-size:60px;\">+</div>","response":null,"screen":"fixation","trial_type":"html-keyboard-response","trial_index":202,"time_elapsed":188885,"internal_node_id":"0.0-4.0-2.0-0.17","participant_id":"8fp09d0fou","trial_duration":551},{"rt":525,"stimulus":"stimuli/MullerLyer_str0_diff0.448231.png","response":"arrowup","screen":"Trial","block":"MullerLyer","correct_response":"arrowup","trial_type":"image-keyboard-response","trial_index":203,"time_elapsed":189422,"internal_node_id":"0.0-4.0-2.0-1.17","participant_id":"8fp09d0fou","prestimulus_duration":552,"correct":true,"type":"MullerLyer","illusion_strength":0,"illusion_difference":0.44823076923076927,"block_number":2,"trial_number":18},{"rt":null,"stimulus":"<div style=\"font-size:60px;\">+</div>","response":null,"screen":"fixation","trial_type":"html-keyboard-response","trial_index":204,"time_elapsed":190101,"internal_node_id":"0.0-4.0-2.0-0.18","participant_id":"8fp09d0fou","trial_duration":677},{"rt":565,"stimulus":"stimuli/MullerLyer_str0_diff-0.307.png","response":"arrowdown","screen":"Trial","block":"MullerLyer","correct_response":"arrowdown","trial_type":"image-keyboard-response","trial_index":205,"time_elapsed":190680,"internal_node_id":"0.0-4.0-2.0-1.18","participant_id":"8fp09d0fou","prestimulus_duration":679,"correct":true,"type":"MullerLyer","illusion_strength":0,"illusion_difference":-0.307,"block_number":2,"trial_number":19},{"rt":null,"stimulus":"<div style=\"font-size:60px;\">+</div>","response":null,"screen":"fixation","trial_type":"html-keyboard-response","trial_index":206,"time_elapsed":191541,"internal_node_id":"0.0-4.0-2.0-0.19","participant_id":"8fp09d0fou","trial_duration":857},{"rt":516,"stimulus":"stimuli/MullerLyer_str0_diff-0.365846.png","response":"arrowdown","screen":"Trial","block":"MullerLyer","correct_response":"arrowdown","trial_type":"image-keyboard-response","trial_index":207,"time_elapsed":192069,"internal_node_id":"0.0-4.0-2.0-1.19","participant_id":"8fp09d0fou","prestimulus_duration":861,"correct":true,"type":"MullerLyer","illusion_strength":0,"illusion_difference":-0.3658461538461539,"block_number":2,"trial_number":20},{"rt":null,"stimulus":"<div style=\"font-size:60px;\">+</div>","response":null,"screen":"fixation","trial_type":"html-keyboard-response","trial_index":208,"time_elapsed":192646,"internal_node_id":"0.0-4.0-2.0-0.20","participant_id":"8fp09d0fou","trial_duration":572},{"rt":596,"stimulus":"stimuli/MullerLyer_str0_diff-0.448231.png","response":"arrowdown","screen":"Trial","block":"MullerLyer","correct_response":"arrowdown","trial_type":"image-keyboard-response","trial_index":209,"time_elapsed":193254,"internal_node_id":"0.0-4.0-2.0-1.20","participant_id":"8fp09d0fou","prestimulus_duration":577,"correct":true,"type":"MullerLyer","illusion_strength":0,"illusion_difference":-0.44823076923076927,"block_number":2,"trial_number":21},{"rt":null,"stimulus":"<div style=\"font-size:60px;\">+</div>","response":null,"screen":"fixation","trial_type":"html-keyboard-response","trial_index":210,"time_elapsed":194173,"internal_node_id":"0.0-4.0-2.0-0.21","participant_id":"8fp09d0fou","trial_duration":916},{"rt":564,"stimulus":"stimuli/MullerLyer_str0_diff0.165769.png","response":"arrowup","screen":"Trial","block":"MullerLyer","correct_response":"arrowup","trial_type":"image-keyboard-response","trial_index":211,"time_elapsed":194750,"internal_node_id":"0.0-4.0-2.0-1.21","participant_id":"8fp09d0fou","prestimulus_duration":919,"correct":true,"type":"MullerLyer","illusion_strength":0,"illusion_difference":0.16576923076923078,"block_number":2,"trial_number":22},{"rt":null,"stimulus":"<div style=\"font-size:60px;\">+</div>","response":null,"screen":"fixation","trial_type":"html-keyboard-response","trial_index":212,"time_elapsed":195616,"internal_node_id":"0.0-4.0-2.0-0.22","participant_id":"8fp09d0fou","trial_duration":865},{"rt":593,"stimulus":"stimuli/MullerLyer_str0_diff0.307.png","response":"arrowup","screen":"Trial","block":"MullerLyer","correct_response":"arrowup","trial_type":"image-keyboard-response","trial_index":213,"time_elapsed":196221,"internal_node_id":"0.0-4.0-2.0-1.22","participant_id":"8fp09d0fou","prestimulus_duration":866,"correct":true,"type":"MullerLyer","illusion_strength":0,"illusion_difference":0.307,"block_number":2,"trial_number":23},{"rt":null,"stimulus":"<div style=\"font-size:60px;\">+</div>","response":null,"screen":"fixation","trial_type":"html-keyboard-response","trial_index":214,"time_elapsed":196731,"internal_node_id":"0.0-4.0-2.0-0.23","participant_id":"8fp09d0fou","trial_duration":506},{"rt":911,"stimulus":"stimuli/MullerLyer_str0_diff0.071615.png","response":"arrowup","screen":"Trial","block":"MullerLyer","correct_response":"arrowup","trial_type":"image-keyboard-response","trial_index":215,"time_elapsed":197654,"internal_node_id":"0.0-4.0-2.0-1.23","participant_id":"8fp09d0fou","prestimulus_duration":510,"correct":true,"type":"MullerLyer","illusion_strength":0,"illusion_difference":0.07161538461538462,"block_number":2,"trial_number":24},{"rt":null,"stimulus":"<div style=\"font-size:60px;\">+</div>","response":null,"screen":"fixation","trial_type":"html-keyboard-response","trial_index":216,"time_elapsed":198162,"internal_node_id":"0.0-4.0-2.0-0.24","participant_id":"8fp09d0fou","trial_duration":504},{"rt":598,"stimulus":"stimuli/MullerLyer_str0_diff0.130462.png","response":"arrowup","screen":"Trial","block":"MullerLyer","correct_response":"arrowup","trial_type":"image-keyboard-response","trial_index":217,"time_elapsed":198773,"internal_node_id":"0.0-4.0-2.0-1.24","participant_id":"8fp09d0fou","prestimulus_duration":508,"correct":true,"type":"MullerLyer","illusion_strength":0,"illusion_difference":0.13046153846153846,"block_number":2,"trial_number":25},{"rt":null,"stimulus":"<div style=\"font-size:60px;\">+</div>","response":null,"screen":"fixation","trial_type":"html-keyboard-response","trial_index":218,"time_elapsed":199334,"internal_node_id":"0.0-4.0-2.0-0.25","participant_id":"8fp09d0fou","trial_duration":557},{"rt":499,"stimulus":"stimuli/MullerLyer_str0_diff-0.201077.png","response":"arrowdown","screen":"Trial","block":"MullerLyer","correct_response":"arrowdown","trial_type":"image-keyboard-response","trial_index":219,"time_elapsed":199846,"internal_node_id":"0.0-4.0-2.0-1.25","participant_id":"8fp09d0fou","prestimulus_duration":561,"correct":true,"type":"MullerLyer","illusion_strength":0,"illusion_difference":-0.2010769230769231,"block_number":2,"trial_number":26},{"rt":null,"stimulus":"<div style=\"font-size:60px;\">+</div>","response":null,"screen":"fixation","trial_type":"html-keyboard-response","trial_index":220,"time_elapsed":200430,"internal_node_id":"0.0-4.0-2.0-0.26","participant_id":"8fp09d0fou","trial_duration":581},{"rt":628,"stimulus":"stimuli/MullerLyer_str0_diff0.295231.png","response":"arrowup","screen":"Trial","block":"MullerLyer","correct_response":"arrowup","trial_type":"image-keyboard-response","trial_index":221,"time_elapsed":201070,"internal_node_id":"0.0-4.0-2.0-1.26","participant_id":"8fp09d0fou","prestimulus_duration":584,"correct":true,"type":"MullerLyer","illusion_strength":0,"illusion_difference":0.29523076923076924,"block_number":2,"trial_number":27},{"rt":null,"stimulus":"<div style=\"font-size:60px;\">+</div>","response":null,"screen":"fixation","trial_type":"html-keyboard-response","trial_index":222,"time_elapsed":201581,"internal_node_id":"0.0-4.0-2.0-0.27","participant_id":"8fp09d0fou","trial_duration":507},{"rt":635,"stimulus":"stimuli/MullerLyer_str0_diff0.412923.png","response":"arrowup","screen":"Trial","block":"MullerLyer","correct_response":"arrowup","trial_type":"image-keyboard-response","trial_index":223,"time_elapsed":202228,"internal_node_id":"0.0-4.0-2.0-1.27","participant_id":"8fp09d0fou","prestimulus_duration":511,"correct":true,"type":"MullerLyer","illusion_strength":0,"illusion_difference":0.41292307692307695,"block_number":2,"trial_number":28},{"rt":null,"stimulus":"<div style=\"font-size:60px;\">+</div>","response":null,"screen":"fixation","trial_type":"html-keyboard-response","trial_index":224,"time_elapsed":203013,"internal_node_id":"0.0-4.0-2.0-0.28","participant_id":"8fp09d0fou","trial_duration":784},{"rt":596,"stimulus":"stimuli/MullerLyer_str0_diff0.46.png","response":"arrowup","screen":"Trial","block":"MullerLyer","correct_response":"arrowup","trial_type":"image-keyboard-response","trial_index":225,"time_elapsed":203623,"internal_node_id":"0.0-4.0-2.0-1.28","participant_id":"8fp09d0fou","prestimulus_duration":785,"correct":true,"type":"MullerLyer","illusion_strength":0,"illusion_difference":0.46,"block_number":2,"trial_number":29},{"rt":null,"stimulus":"<div style=\"font-size:60px;\">+</div>","response":null,"screen":"fixation","trial_type":"html-keyboard-response","trial_index":226,"time_elapsed":204152,"internal_node_id":"0.0-4.0-2.0-0.29","participant_id":"8fp09d0fou","trial_duration":526},{"rt":593,"stimulus":"stimuli/MullerLyer_str0_diff-0.071615.png","response":"arrowdown","screen":"Trial","block":"MullerLyer","correct_response":"arrowdown","trial_type":"image-keyboard-response","trial_index":227,"time_elapsed":204758,"internal_node_id":"0.0-4.0-2.0-1.29","participant_id":"8fp09d0fou","prestimulus_duration":529,"correct":true,"type":"MullerLyer","illusion_strength":0,"illusion_difference":-0.07161538461538462,"block_number":2,"trial_number":30},{"rt":null,"stimulus":"<div style=\"font-size:60px;\">+</div>","response":null,"screen":"fixation","trial_type":"html-keyboard-response","trial_index":228,"time_elapsed":205414,"internal_node_id":"0.0-4.0-2.0-0.30","participant_id":"8fp09d0fou","trial_duration":655},{"rt":643,"stimulus":"stimuli/MullerLyer_str0_diff-0.118692.png","response":"arrowdown","screen":"Trial","block":"MullerLyer","correct_response":"arrowdown","trial_type":"image-keyboard-response","trial_index":229,"time_elapsed":206070,"internal_node_id":"0.0-4.0-2.0-1.30","participant_id":"8fp09d0fou","prestimulus_duration":656,"correct":true,"type":"MullerLyer","illusion_strength":0,"illusion_difference":-0.1186923076923077,"block_number":2,"trial_number":31},{"rt":null,"stimulus":"<div style=\"font-size:60px;\">+</div>","response":null,"screen":"fixation","trial_type":"html-keyboard-response","trial_index":230,"time_elapsed":206995,"internal_node_id":"0.0-4.0-2.0-0.31","participant_id":"8fp09d0fou","trial_duration":922},{"rt":525,"stimulus":"stimuli/MullerLyer_str0_diff0.212846.png","response":"arrowup","screen":"Trial","block":"MullerLyer","correct_response":"arrowup","trial_type":"image-keyboard-response","trial_index":231,"time_elapsed":207533,"internal_node_id":"0.0-4.0-2.0-1.31","participant_id":"8fp09d0fou","prestimulus_duration":925,"correct":true,"type":"MullerLyer","illusion_strength":0,"illusion_difference":0.21284615384615385,"block_number":2,"trial_number":32},{"rt":null,"stimulus":"<div style=\"font-size:60px;\">+</div>","response":null,"screen":"fixation","trial_type":"html-keyboard-response","trial_index":232,"time_elapsed":208457,"internal_node_id":"0.0-4.0-2.0-0.32","participant_id":"8fp09d0fou","trial_duration":921},{"rt":938,"stimulus":"stimuli/MullerLyer_str0_diff-0.001.png","response":"arrowdown","screen":"Trial","block":"MullerLyer","correct_response":"arrowdown","trial_type":"image-keyboard-response","trial_index":233,"time_elapsed":209407,"internal_node_id":"0.0-4.0-2.0-1.32","participant_id":"8fp09d0fou","prestimulus_duration":924,"correct":true,"type":"MullerLyer","illusion_strength":0,"illusion_difference":-0.001,"block_number":2,"trial_number":33},{"rt":null,"stimulus":"<div style=\"font-size:60px;\">+</div>","response":null,"screen":"fixation","trial_type":"html-keyboard-response","trial_index":234,"time_elapsed":209942,"internal_node_id":"0.0-4.0-2.0-0.33","participant_id":"8fp09d0fou","trial_duration":530},{"rt":516,"stimulus":"stimuli/MullerLyer_str0_diff0.330538.png","response":"arrowup","screen":"Trial","block":"MullerLyer","correct_response":"arrowup","trial_type":"image-keyboard-response","trial_index":235,"time_elapsed":210470,"internal_node_id":"0.0-4.0-2.0-1.33","participant_id":"8fp09d0fou","prestimulus_duration":535,"correct":true,"type":"MullerLyer","illusion_strength":0,"illusion_difference":0.33053846153846156,"block_number":2,"trial_number":34},{"rt":null,"stimulus":"<div style=\"font-size:60px;\">+</div>","response":null,"screen":"fixation","trial_type":"html-keyboard-response","trial_index":236,"time_elapsed":211411,"internal_node_id":"0.0-4.0-2.0-0.34","participant_id":"8fp09d0fou","trial_duration":937},{"rt":566,"stimulus":"stimuli/MullerLyer_str0_diff-0.248154.png","response":"arrowdown","screen":"Trial","block":"MullerLyer","correct_response":"arrowdown","trial_type":"image-keyboard-response","trial_index":237,"time_elapsed":211990,"internal_node_id":"0.0-4.0-2.0-1.34","participant_id":"8fp09d0fou","prestimulus_duration":941,"correct":true,"type":"MullerLyer","illusion_strength":0,"illusion_difference":-0.24815384615384617,"block_number":2,"trial_number":35},{"rt":null,"stimulus":"<div style=\"font-size:60px;\">+</div>","response":null,"screen":"fixation","trial_type":"html-keyboard-response","trial_index":238,"time_elapsed":212742,"internal_node_id":"0.0-4.0-2.0-0.35","participant_id":"8fp09d0fou","trial_duration":746},{"rt":533,"stimulus":"stimuli/MullerLyer_str0_diff0.201077.png","response":"arrowup","screen":"Trial","block":"MullerLyer","correct_response":"arrowup","trial_type":"image-keyboard-response","trial_index":239,"time_elapsed":213286,"internal_node_id":"0.0-4.0-2.0-1.35","participant_id":"8fp09d0fou","prestimulus_duration":752,"correct":true,"type":"MullerLyer","illusion_strength":0,"illusion_difference":0.2010769230769231,"block_number":2,"trial_number":36},{"rt":null,"stimulus":"<div style=\"font-size:60px;\">+</div>","response":null,"screen":"fixation","trial_type":"html-keyboard-response","trial_index":240,"time_elapsed":214269,"internal_node_id":"0.0-4.0-2.0-0.36","participant_id":"8fp09d0fou","trial_duration":979},{"rt":1094,"stimulus":"stimuli/MullerLyer_str0_diff0.106923.png","response":"arrowup","screen":"Trial","block":"MullerLyer","correct_response":"arrowup","trial_type":"image-keyboard-response","trial_index":241,"time_elapsed":215375,"internal_node_id":"0.0-4.0-2.0-1.36","participant_id":"8fp09d0fou","prestimulus_duration":983,"correct":true,"type":"MullerLyer","illusion_strength":0,"illusion_difference":0.10692307692307693,"block_number":2,"trial_number":37},{"rt":null,"stimulus":"<div style=\"font-size:60px;\">+</div>","response":null,"screen":"fixation","trial_type":"html-keyboard-response","trial_index":242,"time_elapsed":216030,"internal_node_id":"0.0-4.0-2.0-0.37","participant_id":"8fp09d0fou","trial_duration":650},{"rt":588,"stimulus":"stimuli/MullerLyer_str0_diff0.283462.png","response":"arrowup","screen":"Trial","block":"MullerLyer","correct_response":"arrowup","trial_type":"image-keyboard-response","trial_index":243,"time_elapsed":216630,"internal_node_id":"0.0-4.0-2.0-1.37","participant_id":"8fp09d0fou","prestimulus_duration":655,"correct":true,"type":"MullerLyer","illusion_strength":0,"illusion_difference":0.2834615384615385,"block_number":2,"trial_number":38},{"rt":null,"stimulus":"<div style=\"font-size:60px;\">+</div>","response":null,"screen":"fixation","trial_type":"html-keyboard-response","trial_index":244,"time_elapsed":217579,"internal_node_id":"0.0-4.0-2.0-0.38","participant_id":"8fp09d0fou","trial_duration":948},{"rt":527,"stimulus":"stimuli/MullerLyer_str0_diff-0.083385.png","response":"arrowdown","screen":"Trial","block":"MullerLyer","correct_response":"arrowdown","trial_type":"image-keyboard-response","trial_index":245,"time_elapsed":218118,"internal_node_id":"0.0-4.0-2.0-1.38","participant_id":"8fp09d0fou","prestimulus_duration":949,"correct":true,"type":"MullerLyer","illusion_strength":0,"illusion_difference":-0.08338461538461539,"block_number":2,"trial_number":39},{"rt":null,"stimulus":"<div style=\"font-size:60px;\">+</div>","response":null,"screen":"fixation","trial_type":"html-keyboard-response","trial_index":246,"time_elapsed":218801,"internal_node_id":"0.0-4.0-2.0-0.39","participant_id":"8fp09d0fou","trial_duration":682},{"rt":585,"stimulus":"stimuli/MullerLyer_str0_diff-0.283462.png","response":"arrowdown","screen":"Trial","block":"MullerLyer","correct_response":"arrowdown","trial_type":"image-keyboard-response","trial_index":247,"time_elapsed":219398,"internal_node_id":"0.0-4.0-2.0-1.39","participant_id":"8fp09d0fou","prestimulus_duration":683,"correct":true,"type":"MullerLyer","illusion_strength":0,"illusion_difference":-0.2834615384615385,"block_number":2,"trial_number":40},{"rt":null,"stimulus":"<div style=\"font-size:60px;\">+</div>","response":null,"screen":"fixation","trial_type":"html-keyboard-response","trial_index":248,"time_elapsed":220312,"internal_node_id":"0.0-4.0-2.0-0.40","participant_id":"8fp09d0fou","trial_duration":912},{"rt":497,"stimulus":"stimuli/MullerLyer_str0_diff-0.177538.png","response":"arrowdown","screen":"Trial","block":"MullerLyer","correct_response":"arrowdown","trial_type":"image-keyboard-response","trial_index":249,"time_elapsed":220822,"internal_node_id":"0.0-4.0-2.0-1.40","participant_id":"8fp09d0fou","prestimulus_duration":914,"correct":true,"type":"MullerLyer","illusion_strength":0,"illusion_difference":-0.17753846153846153,"block_number":2,"trial_number":41},{"rt":null,"stimulus":"<div style=\"font-size:60px;\">+</div>","response":null,"screen":"fixation","trial_type":"html-keyboard-response","trial_index":250,"time_elapsed":221753,"internal_node_id":"0.0-4.0-2.0-0.41","participant_id":"8fp09d0fou","trial_duration":931},{"rt":458,"stimulus":"stimuli/MullerLyer_str0_diff-0.271692.png","response":"arrowdown","screen":"Trial","block":"MullerLyer","correct_response":"arrowdown","trial_type":"image-keyboard-response","trial_index":251,"time_elapsed":222223,"internal_node_id":"0.0-4.0-2.0-1.41","participant_id":"8fp09d0fou","prestimulus_duration":931,"correct":true,"type":"MullerLyer","illusion_strength":0,"illusion_difference":-0.2716923076923077,"block_number":2,"trial_number":42},{"rt":null,"stimulus":"<div style=\"font-size:60px;\">+</div>","response":null,"screen":"fixation","trial_type":"html-keyboard-response","trial_index":252,"time_elapsed":222846,"internal_node_id":"0.0-4.0-2.0-0.42","participant_id":"8fp09d0fou","trial_duration":619},{"rt":652,"stimulus":"stimuli/MullerLyer_str0_diff0.095154.png","response":"arrowup","screen":"Trial","block":"MullerLyer","correct_response":"arrowup","trial_type":"image-keyboard-response","trial_index":253,"time_elapsed":223511,"internal_node_id":"0.0-4.0-2.0-1.42","participant_id":"8fp09d0fou","prestimulus_duration":623,"correct":true,"type":"MullerLyer","illusion_strength":0,"illusion_difference":0.09515384615384616,"block_number":2,"trial_number":43},{"rt":null,"stimulus":"<div style=\"font-size:60px;\">+</div>","response":null,"screen":"fixation","trial_type":"html-keyboard-response","trial_index":254,"time_elapsed":224025,"internal_node_id":"0.0-4.0-2.0-0.43","participant_id":"8fp09d0fou","trial_duration":509},{"rt":513,"stimulus":"stimuli/MullerLyer_str0_diff0.424692.png","response":"arrowup","screen":"Trial","block":"MullerLyer","correct_response":"arrowup","trial_type":"image-keyboard-response","trial_index":255,"time_elapsed":224550,"internal_node_id":"0.0-4.0-2.0-1.43","participant_id":"8fp09d0fou","prestimulus_duration":514,"correct":true,"type":"MullerLyer","illusion_strength":0,"illusion_difference":0.4246923076923077,"block_number":2,"trial_number":44},{"rt":null,"stimulus":"<div style=\"font-size:60px;\">+</div>","response":null,"screen":"fixation","trial_type":"html-keyboard-response","trial_index":256,"time_elapsed":225112,"internal_node_id":"0.0-4.0-2.0-0.44","participant_id":"8fp09d0fou","trial_duration":561},{"rt":530,"stimulus":"stimuli/MullerLyer_str0_diff0.365846.png","response":"arrowup","screen":"Trial","block":"MullerLyer","correct_response":"arrowup","trial_type":"image-keyboard-response","trial_index":257,"time_elapsed":225654,"internal_node_id":"0.0-4.0-2.0-1.44","participant_id":"8fp09d0fou","prestimulus_duration":562,"correct":true,"type":"MullerLyer","illusion_strength":0,"illusion_difference":0.3658461538461539,"block_number":2,"trial_number":45},{"rt":null,"stimulus":"<div style=\"font-size:60px;\">+</div>","response":null,"screen":"fixation","trial_type":"html-keyboard-response","trial_index":258,"time_elapsed":226496,"internal_node_id":"0.0-4.0-2.0-0.45","participant_id":"8fp09d0fou","trial_duration":837},{"rt":552,"stimulus":"stimuli/MullerLyer_str0_diff-0.342308.png","response":"arrowdown","screen":"Trial","block":"MullerLyer","correct_response":"arrowdown","trial_type":"image-keyboard-response","trial_index":259,"time_elapsed":227062,"internal_node_id":"0.0-4.0-2.0-1.45","participant_id":"8fp09d0fou","prestimulus_duration":842,"correct":true,"type":"MullerLyer","illusion_strength":0,"illusion_difference":-0.3423076923076923,"block_number":2,"trial_number":46},{"rt":null,"stimulus":"<div style=\"font-size:60px;\">+</div>","response":null,"screen":"fixation","trial_type":"html-keyboard-response","trial_index":260,"time_elapsed":227649,"internal_node_id":"0.0-4.0-2.0-0.46","participant_id":"8fp09d0fou","trial_duration":582},{"rt":545,"stimulus":"stimuli/MullerLyer_str0_diff-0.330538.png","response":"arrowdown","screen":"Trial","block":"MullerLyer","correct_response":"arrowdown","trial_type":"image-keyboard-response","trial_index":261,"time_elapsed":228206,"internal_node_id":"0.0-4.0-2.0-1.46","participant_id":"8fp09d0fou","prestimulus_duration":587,"correct":true,"type":"MullerLyer","illusion_strength":0,"illusion_difference":-0.33053846153846156,"block_number":2,"trial_number":47},{"rt":null,"stimulus":"<div style=\"font-size:60px;\">+</div>","response":null,"screen":"fixation","trial_type":"html-keyboard-response","trial_index":262,"time_elapsed":229162,"internal_node_id":"0.0-4.0-2.0-0.47","participant_id":"8fp09d0fou","trial_duration":955},{"rt":568,"stimulus":"stimuli/MullerLyer_str0_diff-0.236385.png","response":"arrowdown","screen":"Trial","block":"MullerLyer","correct_response":"arrowdown","trial_type":"image-keyboard-response","trial_index":263,"time_elapsed":229742,"internal_node_id":"0.0-4.0-2.0-1.47","participant_id":"8fp09d0fou","prestimulus_duration":956,"correct":true,"type":"MullerLyer","illusion_strength":0,"illusion_difference":-0.2363846153846154,"block_number":2,"trial_number":48},{"rt":null,"stimulus":"<div style=\"font-size:60px;\">+</div>","response":null,"screen":"fixation","trial_type":"html-keyboard-response","trial_index":264,"time_elapsed":230715,"internal_node_id":"0.0-4.0-2.0-0.48","participant_id":"8fp09d0fou","trial_duration":967},{"rt":574,"stimulus":"stimuli/MullerLyer_str0_diff-0.401154.png","response":"arrowdown","screen":"Trial","block":"MullerLyer","correct_response":"arrowdown","trial_type":"image-keyboard-response","trial_index":265,"time_elapsed":231303,"internal_node_id":"0.0-4.0-2.0-1.48","participant_id":"8fp09d0fou","prestimulus_duration":973,"correct":true,"type":"MullerLyer","illusion_strength":0,"illusion_difference":-0.4011538461538462,"block_number":2,"trial_number":49},{"rt":null,"stimulus":"<div style=\"font-size:60px;\">+</div>","response":null,"screen":"fixation","trial_type":"html-keyboard-response","trial_index":266,"time_elapsed":232096,"internal_node_id":"0.0-4.0-2.0-0.49","participant_id":"8fp09d0fou","trial_duration":788},{"rt":472,"stimulus":"stimuli/MullerLyer_str0_diff0.142231.png","response":"arrowdown","screen":"Trial","block":"MullerLyer","correct_response":"arrowup","trial_type":"image-keyboard-response","trial_index":267,"time_elapsed":232583,"internal_node_id":"0.0-4.0-2.0-1.49","participant_id":"8fp09d0fou","prestimulus_duration":793,"correct":false,"type":"MullerLyer","illusion_strength":0,"illusion_difference":0.14223076923076924,"block_number":2,"trial_number":50},{"rt":null,"stimulus":"<div style=\"font-size:60px;\">+</div>","response":null,"screen":"fixation","trial_type":"html-keyboard-response","trial_index":268,"time_elapsed":233281,"internal_node_id":"0.0-4.0-2.0-0.50","participant_id":"8fp09d0fou","trial_duration":695},{"rt":511,"stimulus":"stimuli/MullerLyer_str0_diff-0.142231.png","response":"arrowdown","screen":"Trial","block":"MullerLyer","correct_response":"arrowdown","trial_type":"image-keyboard-response","trial_index":269,"time_elapsed":233806,"internal_node_id":"0.0-4.0-2.0-1.50","participant_id":"8fp09d0fou","prestimulus_duration":698,"correct":true,"type":"MullerLyer","illusion_strength":0,"illusion_difference":-0.14223076923076924,"block_number":2,"trial_number":51},{"rt":null,"stimulus":"<div style=\"font-size:60px;\">+</div>","response":null,"screen":"fixation","trial_type":"html-keyboard-response","trial_index":270,"time_elapsed":234634,"internal_node_id":"0.0-4.0-2.0-0.51","participant_id":"8fp09d0fou","trial_duration":824},{"rt":464,"stimulus":"stimuli/MullerLyer_str0_diff0.377615.png","response":"arrowup","screen":"Trial","block":"MullerLyer","correct_response":"arrowup","trial_type":"image-keyboard-response","trial_index":271,"time_elapsed":235111,"internal_node_id":"0.0-4.0-2.0-1.51","participant_id":"8fp09d0fou","prestimulus_duration":828,"correct":true,"type":"MullerLyer","illusion_strength":0,"illusion_difference":0.37761538461538463,"block_number":2,"trial_number":52},{"rt":null,"stimulus":"<div style=\"font-size:60px;\">+</div>","response":null,"screen":"fixation","trial_type":"html-keyboard-response","trial_index":272,"time_elapsed":235780,"internal_node_id":"0.0-4.0-2.0-0.52","participant_id":"8fp09d0fou","trial_duration":666},{"rt":556,"stimulus":"stimuli/MullerLyer_str0_diff-0.059846.png","response":"arrowdown","screen":"Trial","block":"MullerLyer","correct_response":"arrowdown","trial_type":"image-keyboard-response","trial_index":273,"time_elapsed":236349,"internal_node_id":"0.0-4.0-2.0-1.52","participant_id":"8fp09d0fou","prestimulus_duration":669,"correct":true,"type":"MullerLyer","illusion_strength":0,"illusion_difference":-0.05984615384615385,"block_number":2,"trial_number":53},{"rt":null,"stimulus":"<div style=\"font-size:60px;\">+</div>","response":null,"screen":"fixation","trial_type":"html-keyboard-response","trial_index":274,"time_elapsed":237