[
    {
        "success": true,
        "trial_type": "fullscreen",
        "trial_index": 0,
        "time_elapsed": 3556,
        "internal_node_id": "0.0-0.0",
        "participant_id": "lxjebdm2hg"
    },
    {
        "success": true,
        "timeout": false,
        "failed_images": [],
        "failed_audio": [],
        "failed_video": [],
        "trial_type": "preload",
        "trial_index": 1,
        "time_elapsed": 3831,
        "internal_node_id": "0.0-1.0",
        "participant_id": "lxjebdm2hg"
    },
    {
        "rt": 2117,
        "stimulus": "<p><b>The Illusion Game</b></p><p>In this game of speed and reflex, you will need to make <b>visual judgments</b> of different targets (for instance, which circle is the biggest, or which line is the longest), as <b>quickly</b> and as <b>accurately</b> as possible.</p><p>It can be challenging at times, so you want to rely on your intuition and gut feeling to answer as fast as you can, without making errors.</p><p>A score will be computed based on your speed and accuracy and will be displayed after each block.</p><br><p>Don't worry, we will show you examples of each target before each block.</p><p>Remember, your goal is to be as <b>fast</b> and <b>accurate</b> as possible. Good luck!</p>",
        "response": 0,
        "screen": "general_instructions",
        "trial_type": "html-button-response",
        "trial_index": 2,
        "time_elapsed": 5949,
        "internal_node_id": "0.0-2.0",
        "participant_id": "lxjebdm2hg"
    },
    {
        "success": true,
        "timeout": false,
        "failed_images": [],
        "failed_audio": [],
        "failed_video": [],
        "trial_type": "preload",
        "trial_index": 3,
        "time_elapsed": 6261,
        "internal_node_id": "0.0-3.0-0.0",
        "participant_id": "lxjebdm2hg"
    },
    {
        "rt": 6118,
        "stimulus": "<p><b>Part 1</b></p><p>In this part, two red circles will appear side by side on the screen.</p><p>Your task is to select which <b>red circle is bigger</b> in size as fast as you can, without making errors.</p><p>Press <b>the LEFT or the RIGHT arrow</b> to indicate which is the bigger <b>red circle.</b></p><div style='float: center'><img src='utils/stimuli_demo/Delboeuf_Demo.png' height='300'></img><p><img src='utils/answer/answer_leftright_keyboard.PNG' height='150'></img></p><p class='small'>In this example, the correct answer is the <b>LEFT arrow</b>.</p></div><p>Are you ready? <b>Press ENTER to start</b></p>",
        "response": "enter",
        "trial_type": "html-keyboard-response",
        "trial_index": 4,
        "time_elapsed": 12380,
        "internal_node_id": "0.0-3.0-1.0",
        "participant_id": "lxjebdm2hg"
    },
    {
        "rt": null,
        "stimulus": "<div style=\"font-size:60px;\">+</div>",
        "response": null,
        "screen": "fixation",
        "trial_type": "html-keyboard-response",
        "trial_index": 5,
        "time_elapsed": 13467,
        "internal_node_id": "0.0-3.0-2.0-0.0",
        "participant_id": "lxjebdm2hg",
        "trial_duration": 579
    },
    {
        "rt": 381,
        "stimulus": "stimuli/Delboeuf_str0_diff-0.709968.png",
        "response": "arrowright",
        "screen": "Trial",
        "block": "Delboeuf",
        "correct_response": "arrowright",
        "trial_type": "image-keyboard-response",
        "trial_index": 6,
        "time_elapsed": 13851,
        "internal_node_id": "0.0-3.0-2.0-1.0",
        "participant_id": "lxjebdm2hg",
        "prestimulus_duration": 1087,
        "correct": true,
        "type": "Delboeuf",
        "illusion_strength": 0,
        "illusion_difference": -0.7099677419354838,
        "block_number": 1,
        "trial_number": 1
    },
    {
        "rt": null,
        "stimulus": "<div style=\"font-size:60px;\">+</div>",
        "response": null,
        "screen": "fixation",
        "trial_type": "html-keyboard-response",
        "trial_index": 7,
        "time_elapsed": 14845,
        "internal_node_id": "0.0-3.0-2.0-0.1",
        "participant_id": "lxjebdm2hg",
        "trial_duration": 991
    },
    {
        "rt": 322,
        "stimulus": "stimuli/Delboeuf_str0_diff-0.806645.png",
        "response": "arrowright",
        "screen": "Trial",
        "block": "Delboeuf",
        "correct_response": "arrowright",
        "trial_type": "image-keyboard-response",
        "trial_index": 8,
        "time_elapsed": 15168,
        "internal_node_id": "0.0-3.0-2.0-1.1",
        "participant_id": "lxjebdm2hg",
        "prestimulus_duration": 994,
        "correct": true,
        "type": "Delboeuf",
        "illusion_strength": 0,
        "illusion_difference": -0.8066451612903226,
        "block_number": 1,
        "trial_number": 2
    },
    {
        "rt": null,
        "stimulus": "<div style=\"font-size:60px;\">+</div>",
        "response": null,
        "screen": "fixation",
        "trial_type": "html-keyboard-response",
        "trial_index": 9,
        "time_elapsed": 16030,
        "internal_node_id": "0.0-3.0-2.0-0.2",
        "participant_id": "lxjebdm2hg",
        "trial_duration": 855
    },
    {
        "rt": 420,
        "stimulus": "stimuli/Delboeuf_str0_diff0.001.png",
        "response": "arrowleft",
        "screen": "Trial",
        "block": "Delboeuf",
        "correct_response": "arrowleft",
        "trial_type": "image-keyboard-response",
        "trial_index": 10,
        "time_elapsed": 16451,
        "internal_node_id": "0.0-3.0-2.0-1.2",
        "participant_id": "lxjebdm2hg",
        "prestimulus_duration": 862,
        "correct": true,
        "type": "Delboeuf",
        "illusion_strength": 0,
        "illusion_difference": 0.001,
        "block_number": 1,
        "trial_number": 3
    },
    {
        "rt": null,
        "stimulus": "<div style=\"font-size:60px;\">+</div>",
        "response": null,
        "screen": "fixation",
        "trial_type": "html-keyboard-response",
        "trial_index": 11,
        "time_elapsed": 16967,
        "internal_node_id": "0.0-3.0-2.0-0.3",
        "participant_id": "lxjebdm2hg",
        "trial_duration": 505
    },
    {
        "rt": 657,
        "stimulus": "stimuli/Delboeuf_str0_diff-0.258806.png",
        "response": "arrowright",
        "screen": "Trial",
        "block": "Delboeuf",
        "correct_response": "arrowright",
        "trial_type": "image-keyboard-response",
        "trial_index": 12,
        "time_elapsed": 17624,
        "internal_node_id": "0.0-3.0-2.0-1.3",
        "participant_id": "lxjebdm2hg",
        "prestimulus_duration": 516,
        "correct": true,
        "type": "Delboeuf",
        "illusion_strength": 0,
        "illusion_difference": -0.2588064516129032,
        "block_number": 1,
        "trial_number": 4
    },
    {
        "rt": null,
        "stimulus": "<div style=\"font-size:60px;\">+</div>",
        "response": null,
        "screen": "fixation",
        "trial_type": "html-keyboard-response",
        "trial_index": 13,
        "time_elapsed": 18598,
        "internal_node_id": "0.0-3.0-2.0-0.4",
        "participant_id": "lxjebdm2hg",
        "trial_duration": 963
    },
    {
        "rt": 368,
        "stimulus": "stimuli/Delboeuf_str0_diff0.355484.png",
        "response": "arrowleft",
        "screen": "Trial",
        "block": "Delboeuf",
        "correct_response": "arrowleft",
        "trial_type": "image-keyboard-response",
        "trial_index": 14,
        "time_elapsed": 18967,
        "internal_node_id": "0.0-3.0-2.0-1.4",
        "participant_id": "lxjebdm2hg",
        "prestimulus_duration": 974,
        "correct": true,
        "type": "Delboeuf",
        "illusion_strength": 0,
        "illusion_difference": 0.3554838709677419,
        "block_number": 1,
        "trial_number": 5
    },
    {
        "rt": null,
        "stimulus": "<div style=\"font-size:60px;\">+</div>",
        "response": null,
        "screen": "fixation",
        "trial_type": "html-keyboard-response",
        "trial_index": 15,
        "time_elapsed": 19925,
        "internal_node_id": "0.0-3.0-2.0-0.5",
        "participant_id": "lxjebdm2hg",
        "trial_duration": 948
    },
    {
        "rt": 315,
        "stimulus": "stimuli/Delboeuf_str0_diff0.677742.png",
        "response": "arrowleft",
        "screen": "Trial",
        "block": "Delboeuf",
        "correct_response": "arrowleft",
        "trial_type": "image-keyboard-response",
        "trial_index": 16,
        "time_elapsed": 20241,
        "internal_node_id": "0.0-3.0-2.0-1.5",
        "participant_id": "lxjebdm2hg",
        "prestimulus_duration": 958,
        "correct": true,
        "type": "Delboeuf",
        "illusion_strength": 0,
        "illusion_difference": 0.677741935483871,
        "block_number": 1,
        "trial_number": 6
    },
    {
        "rt": null,
        "stimulus": "<div style=\"font-size:60px;\">+</div>",
        "response": null,
        "screen": "fixation",
        "trial_type": "html-keyboard-response",
        "trial_index": 17,
        "time_elapsed": 20894,
        "internal_node_id": "0.0-3.0-2.0-0.6",
        "participant_id": "lxjebdm2hg",
        "trial_duration": 642
    },
    {
        "rt": 410,
        "stimulus": "stimuli/Delboeuf_str0_diff-0.452161.png",
        "response": "arrowright",
        "screen": "Trial",
        "block": "Delboeuf",
        "correct_response": "arrowright",
        "trial_type": "image-keyboard-response",
        "trial_index": 18,
        "time_elapsed": 21305,
        "internal_node_id": "0.0-3.0-2.0-1.6",
        "participant_id": "lxjebdm2hg",
        "prestimulus_duration": 653,
        "correct": true,
        "type": "Delboeuf",
        "illusion_strength": 0,
        "illusion_difference": -0.4521612903225806,
        "block_number": 1,
        "trial_number": 7
    },
    {
        "rt": null,
        "stimulus": "<div style=\"font-size:60px;\">+</div>",
        "response": null,
        "screen": "fixation",
        "trial_type": "html-keyboard-response",
        "trial_index": 19,
        "time_elapsed": 21944,
        "internal_node_id": "0.0-3.0-2.0-0.7",
        "participant_id": "lxjebdm2hg",
        "trial_duration": 624
    },
    {
        "rt": 388,
        "stimulus": "stimuli/Delboeuf_str0_diff0.516613.png",
        "response": "arrowleft",
        "screen": "Trial",
        "block": "Delboeuf",
        "correct_response": "arrowleft",
        "trial_type": "image-keyboard-response",
        "trial_index": 20,
        "time_elapsed": 22333,
        "internal_node_id": "0.0-3.0-2.0-1.7",
        "participant_id": "lxjebdm2hg",
        "prestimulus_duration": 639,
        "correct": true,
        "type": "Delboeuf",
        "illusion_strength": 0,
        "illusion_difference": 0.5166129032258064,
        "block_number": 1,
        "trial_number": 8
    },
    {
        "rt": null,
        "stimulus": "<div style=\"font-size:60px;\">+</div>",
        "response": null,
        "screen": "fixation",
        "trial_type": "html-keyboard-response",
        "trial_index": 21,
        "time_elapsed": 22931,
        "internal_node_id": "0.0-3.0-2.0-0.8",
        "participant_id": "lxjebdm2hg",
        "trial_duration": 593
    },
    {
        "rt": 335,
        "stimulus": "stimuli/Delboeuf_str0_diff0.903323.png",
        "response": "arrowleft",
        "screen": "Trial",
        "block": "Delboeuf",
        "correct_response": "arrowleft",
        "trial_type": "image-keyboard-response",
        "trial_index": 22,
        "time_elapsed": 23267,
        "internal_node_id": "0.0-3.0-2.0-1.8",
        "participant_id": "lxjebdm2hg",
        "prestimulus_duration": 598,
        "correct": true,
        "type": "Delboeuf",
        "illusion_strength": 0,
        "illusion_difference": 0.9033225806451612,
        "block_number": 1,
        "trial_number": 9
    },
    {
        "rt": null,
        "stimulus": "<div style=\"font-size:60px;\">+</div>",
        "response": null,
        "screen": "fixation",
        "trial_type": "html-keyboard-response",
        "trial_index": 23,
        "time_elapsed": 23793,
        "internal_node_id": "0.0-3.0-2.0-0.9",
        "participant_id": "lxjebdm2hg",
        "trial_duration": 523
    },
    {
        "rt": 387,
        "stimulus": "stimuli/Delboeuf_str0_diff0.61329.png",
        "response": "arrowleft",
        "screen": "Trial",
        "block": "Delboeuf",
        "correct_response": "arrowleft",
        "trial_type": "image-keyboard-response",
        "trial_index": 24,
        "time_elapsed": 24181,
        "internal_node_id": "0.0-3.0-2.0-1.9",
        "participant_id": "lxjebdm2hg",
        "prestimulus_duration": 526,
        "correct": true,
        "type": "Delboeuf",
        "illusion_strength": 0,
        "illusion_difference": 0.6132903225806452,
        "block_number": 1,
        "trial_number": 10
    },
    {
        "rt": null,
        "stimulus": "<div style=\"font-size:60px;\">+</div>",
        "response": null,
        "screen": "fixation",
        "trial_type": "html-keyboard-response",
        "trial_index": 25,
        "time_elapsed": 25047,
        "internal_node_id": "0.0-3.0-2.0-0.10",
        "participant_id": "lxjebdm2hg",
        "trial_duration": 853
    },
    {
        "rt": 315,
        "stimulus": "stimuli/Delboeuf_str0_diff0.548839.png",
        "response": "arrowleft",
        "screen": "Trial",
        "block": "Delboeuf",
        "correct_response": "arrowleft",
        "trial_type": "image-keyboard-response",
        "trial_index": 26,
        "time_elapsed": 25363,
        "internal_node_id": "0.0-3.0-2.0-1.10",
        "participant_id": "lxjebdm2hg",
        "prestimulus_duration": 866,
        "correct": true,
        "type": "Delboeuf",
        "illusion_strength": 0,
        "illusion_difference": 0.5488387096774193,
        "block_number": 1,
        "trial_number": 11
    },
    {
        "rt": null,
        "stimulus": "<div style=\"font-size:60px;\">+</div>",
        "response": null,
        "screen": "fixation",
        "trial_type": "html-keyboard-response",
        "trial_index": 27,
        "time_elapsed": 25926,
        "internal_node_id": "0.0-3.0-2.0-0.11",
        "participant_id": "lxjebdm2hg",
        "trial_duration": 559
    },
    {
        "rt": 417,
        "stimulus": "stimuli/Delboeuf_str0_diff-0.967774.png",
        "response": "arrowright",
        "screen": "Trial",
        "block": "Delboeuf",
        "correct_response": "arrowright",
        "trial_type": "image-keyboard-response",
        "trial_index": 28,
        "time_elapsed": 26344,
        "internal_node_id": "0.0-3.0-2.0-1.11",
        "participant_id": "lxjebdm2hg",
        "prestimulus_duration": 563,
        "correct": true,
        "type": "Delboeuf",
        "illusion_strength": 0,
        "illusion_difference": -0.9677741935483871,
        "block_number": 1,
        "trial_number": 12
    },
    {
        "rt": null,
        "stimulus": "<div style=\"font-size:60px;\">+</div>",
        "response": null,
        "screen": "fixation",
        "trial_type": "html-keyboard-response",
        "trial_index": 29,
        "time_elapsed": 26864,
        "internal_node_id": "0.0-3.0-2.0-0.12",
        "participant_id": "lxjebdm2hg",
        "trial_duration": 513
    },
    {
        "rt": 543,
        "stimulus": "stimuli/Delboeuf_str0_diff-0.774419.png",
        "response": "arrowright",
        "screen": "Trial",
        "block": "Delboeuf",
        "correct_response": "arrowright",
        "trial_type": "image-keyboard-response",
        "trial_index": 30,
        "time_elapsed": 27408,
        "internal_node_id": "0.0-3.0-2.0-1.12",
        "participant_id": "lxjebdm2hg",
        "prestimulus_duration": 520,
        "correct": true,
        "type": "Delboeuf",
        "illusion_strength": 0,
        "illusion_difference": -0.7744193548387096,
        "block_number": 1,
        "trial_number": 13
    },
    {
        "rt": null,
        "stimulus": "<div style=\"font-size:60px;\">+</div>",
        "response": null,
        "screen": "fixation",
        "trial_type": "html-keyboard-response",
        "trial_index": 31,
        "time_elapsed": 28159,
        "internal_node_id": "0.0-3.0-2.0-0.13",
        "participant_id": "lxjebdm2hg",
        "trial_duration": 744
    },
    {
        "rt": 344,
        "stimulus": "stimuli/Delboeuf_str0_diff0.871097.png",
        "response": "arrowleft",
        "screen": "Trial",
        "block": "Delboeuf",
        "correct_response": "arrowleft",
        "trial_type": "image-keyboard-response",
        "trial_index": 32,
        "time_elapsed": 28504,
        "internal_node_id": "0.0-3.0-2.0-1.13",
        "participant_id": "lxjebdm2hg",
        "prestimulus_duration": 751,
        "correct": true,
        "type": "Delboeuf",
        "illusion_strength": 0,
        "illusion_difference": 0.8710967741935484,
        "block_number": 1,
        "trial_number": 14
    },
    {
        "rt": null,
        "stimulus": "<div style=\"font-size:60px;\">+</div>",
        "response": null,
        "screen": "fixation",
        "trial_type": "html-keyboard-response",
        "trial_index": 33,
        "time_elapsed": 29454,
        "internal_node_id": "0.0-3.0-2.0-0.14",
        "participant_id": "lxjebdm2hg",
        "trial_duration": 940
    },
    {
        "rt": 343,
        "stimulus": "stimuli/Delboeuf_str0_diff1.0.png",
        "response": "arrowleft",
        "screen": "Trial",
        "block": "Delboeuf",
        "correct_response": "arrowleft",
        "trial_type": "image-keyboard-response",
        "trial_index": 34,
        "time_elapsed": 29798,
        "internal_node_id": "0.0-3.0-2.0-1.14",
        "participant_id": "lxjebdm2hg",
        "prestimulus_duration": 950,
        "correct": true,
        "type": "Delboeuf",
        "illusion_strength": 0,
        "illusion_difference": 1,
        "block_number": 1,
        "trial_number": 15
    },
    {
        "rt": null,
        "stimulus": "<div style=\"font-size:60px;\">+</div>",
        "response": null,
        "screen": "fixation",
        "trial_type": "html-keyboard-response",
        "trial_index": 35,
        "time_elapsed": 30328,
        "internal_node_id": "0.0-3.0-2.0-0.15",
        "participant_id": "lxjebdm2hg",
        "trial_duration": 528
    },
    {
        "rt": 382,
        "stimulus": "stimuli/Delboeuf_str0_diff-0.516613.png",
        "response": "arrowright",
        "screen": "Trial",
        "block": "Delboeuf",
        "correct_response": "arrowright",
        "trial_type": "image-keyboard-response",
        "trial_index": 36,
        "time_elapsed": 30711,
        "internal_node_id": "0.0-3.0-2.0-1.15",
        "participant_id": "lxjebdm2hg",
        "prestimulus_duration": 530,
        "correct": true,
        "type": "Delboeuf",
        "illusion_strength": 0,
        "illusion_difference": -0.5166129032258064,
        "block_number": 1,
        "trial_number": 16
    },
    {
        "rt": null,
        "stimulus": "<div style=\"font-size:60px;\">+</div>",
        "response": null,
        "screen": "fixation",
        "trial_type": "html-keyboard-response",
        "trial_index": 37,
        "time_elapsed": 31658,
        "internal_node_id": "0.0-3.0-2.0-0.16",
        "participant_id": "lxjebdm2hg",
        "trial_duration": 933
    },
    {
        "rt": 169,
        "stimulus": "stimuli/Delboeuf_str0_diff0.226581.png",
        "response": "arrowleft",
        "screen": "Trial",
        "block": "Delboeuf",
        "correct_response": "arrowleft",
        "trial_type": "image-keyboard-response",
        "trial_index": 38,
        "time_elapsed": 31828,
        "internal_node_id": "0.0-3.0-2.0-1.16",
        "participant_id": "lxjebdm2hg",
        "prestimulus_duration": 947,
        "correct": true,
        "type": "Delboeuf",
        "illusion_strength": 0,
        "illusion_difference": 0.2265806451612903,
        "block_number": 1,
        "trial_number": 17
    },
    {
        "rt": null,
        "stimulus": "<div style=\"font-size:60px;\">+</div>",
        "response": null,
        "screen": "fixation",
        "trial_type": "html-keyboard-response",
        "trial_index": 39,
        "time_elapsed": 32475,
        "internal_node_id": "0.0-3.0-2.0-0.17",
        "participant_id": "lxjebdm2hg",
        "trial_duration": 638
    },
    {
        "rt": 361,
        "stimulus": "stimuli/Delboeuf_str0_diff0.838871.png",
        "response": "arrowleft",
        "screen": "Trial",
        "block": "Delboeuf",
        "correct_response": "arrowleft",
        "trial_type": "image-keyboard-response",
        "trial_index": 40,
        "time_elapsed": 32837,
        "internal_node_id": "0.0-3.0-2.0-1.17",
        "participant_id": "lxjebdm2hg",
        "prestimulus_duration": 647,
        "correct": true,
        "type": "Delboeuf",
        "illusion_strength": 0,
        "illusion_difference": 0.8388709677419355,
        "block_number": 1,
        "trial_number": 18
    },
    {
        "rt": null,
        "stimulus": "<div style=\"font-size:60px;\">+</div>",
        "response": null,
        "screen": "fixation",
        "trial_type": "html-keyboard-response",
        "trial_index": 41,
        "time_elapsed": 33366,
        "internal_node_id": "0.0-3.0-2.0-0.18",
        "participant_id": "lxjebdm2hg",
        "trial_duration": 517
    },
    {
        "rt": 407,
        "stimulus": "stimuli/Delboeuf_str0_diff-0.065452.png",
        "response": "arrowright",
        "screen": "Trial",
        "block": "Delboeuf",
        "correct_response": "arrowright",
        "trial_type": "image-keyboard-response",
        "trial_index": 42,
        "time_elapsed": 33773,
        "internal_node_id": "0.0-3.0-2.0-1.18",
        "participant_id": "lxjebdm2hg",
        "prestimulus_duration": 529,
        "correct": true,
        "type": "Delboeuf",
        "illusion_strength": 0,
        "illusion_difference": -0.0654516129032258,
        "block_number": 1,
        "trial_number": 19
    },
    {
        "rt": null,
        "stimulus": "<div style=\"font-size:60px;\">+</div>",
        "response": null,
        "screen": "fixation",
        "trial_type": "html-keyboard-response",
        "trial_index": 43,
        "time_elapsed": 34618,
        "internal_node_id": "0.0-3.0-2.0-0.19",
        "participant_id": "lxjebdm2hg",
        "trial_duration": 836
    },
    {
        "rt": 220,
        "stimulus": "stimuli/Delboeuf_str0_diff0.581065.png",
        "response": "arrowleft",
        "screen": "Trial",
        "block": "Delboeuf",
        "correct_response": "arrowleft",
        "trial_type": "image-keyboard-response",
        "trial_index": 44,
        "time_elapsed": 34839,
        "internal_node_id": "0.0-3.0-2.0-1.19",
        "participant_id": "lxjebdm2hg",
        "prestimulus_duration": 845,
        "correct": true,
        "type": "Delboeuf",
        "illusion_strength": 0,
        "illusion_difference": 0.5810645161290322,
        "block_number": 1,
        "trial_number": 20
    },
    {
        "rt": null,
        "stimulus": "<div style=\"font-size:60px;\">+</div>",
        "response": null,
        "screen": "fixation",
        "trial_type": "html-keyboard-response",
        "trial_index": 45,
        "time_elapsed": 35614,
        "internal_node_id": "0.0-3.0-2.0-0.20",
        "participant_id": "lxjebdm2hg",
        "trial_duration": 764
    },
    {
        "rt": 459,
        "stimulus": "stimuli/Delboeuf_str0_diff-0.903323.png",
        "response": "arrowright",
        "screen": "Trial",
        "block": "Delboeuf",
        "correct_response": "arrowright",
        "trial_type": "image-keyboard-response",
        "trial_index": 46,
        "time_elapsed": 36075,
        "internal_node_id": "0.0-3.0-2.0-1.20",
        "participant_id": "lxjebdm2hg",
        "prestimulus_duration": 775,
        "correct": true,
        "type": "Delboeuf",
        "illusion_strength": 0,
        "illusion_difference": -0.9033225806451612,
        "block_number": 1,
        "trial_number": 21
    },
    {
        "rt": null,
        "stimulus": "<div style=\"font-size:60px;\">+</div>",
        "response": null,
        "screen": "fixation",
        "trial_type": "html-keyboard-response",
        "trial_index": 47,
        "time_elapsed": 36631,
        "internal_node_id": "0.0-3.0-2.0-0.21",
        "participant_id": "lxjebdm2hg",
        "trial_duration": 554
    },
    {
        "rt": 366,
        "stimulus": "stimuli/Delboeuf_str0_diff0.806645.png",
        "response": "arrowleft",
        "screen": "Trial",
        "block": "Delboeuf",
        "correct_response": "arrowleft",
        "trial_type": "image-keyboard-response",
        "trial_index": 48,
        "time_elapsed": 36999,
        "internal_node_id": "0.0-3.0-2.0-1.21",
        "participant_id": "lxjebdm2hg",
        "prestimulus_duration": 556,
        "correct": true,
        "type": "Delboeuf",
        "illusion_strength": 0,
        "illusion_difference": 0.8066451612903226,
        "block_number": 1,
        "trial_number": 22
    },
    {
        "rt": null,
        "stimulus": "<div style=\"font-size:60px;\">+</div>",
        "response": null,
        "screen": "fixation",
        "trial_type": "html-keyboard-response",
        "trial_index": 49,
        "time_elapsed": 37775,
        "internal_node_id": "0.0-3.0-2.0-0.22",
        "participant_id": "lxjebdm2hg",
        "trial_duration": 771
    },
    {
        "rt": 484,
        "stimulus": "stimuli/Delboeuf_str0_diff-0.291032.png",
        "response": "arrowright",
        "screen": "Trial",
        "block": "Delboeuf",
        "correct_response": "arrowright",
        "trial_type": "image-keyboard-response",
        "trial_index": 50,
        "time_elapsed": 38261,
        "internal_node_id": "0.0-3.0-2.0-1.22",
        "participant_id": "lxjebdm2hg",
        "prestimulus_duration": 776,
        "correct": true,
        "type": "Delboeuf",
        "illusion_strength": 0,
        "illusion_difference": -0.2910322580645161,
        "block_number": 1,
        "trial_number": 23
    },
    {
        "rt": null,
        "stimulus": "<div style=\"font-size:60px;\">+</div>",
        "response": null,
        "screen": "fixation",
        "trial_type": "html-keyboard-response",
        "trial_index": 51,
        "time_elapsed": 39102,
        "internal_node_id": "0.0-3.0-2.0-0.23",
        "participant_id": "lxjebdm2hg",
        "trial_duration": 838
    },
    {
        "rt": 488,
        "stimulus": "stimuli/Delboeuf_str0_diff-0.38771.png",
        "response": "arrowright",
        "screen": "Trial",
        "block": "Delboeuf",
        "correct_response": "arrowright",
        "trial_type": "image-keyboard-response",
        "trial_index": 52,
        "time_elapsed": 39592,
        "internal_node_id": "0.0-3.0-2.0-1.23",
        "participant_id": "lxjebdm2hg",
        "prestimulus_duration": 841,
        "correct": true,
        "type": "Delboeuf",
        "illusion_strength": 0,
        "illusion_difference": -0.3877096774193548,
        "block_number": 1,
        "trial_number": 24
    },
    {
        "rt": null,
        "stimulus": "<div style=\"font-size:60px;\">+</div>",
        "response": null,
        "screen": "fixation",
        "trial_type": "html-keyboard-response",
        "trial_index": 53,
        "time_elapsed": 40573,
        "internal_node_id": "0.0-3.0-2.0-0.24",
        "participant_id": "lxjebdm2hg",
        "trial_duration": 970
    },
    {
        "rt": 441,
        "stimulus": "stimuli/Delboeuf_str0_diff-0.742194.png",
        "response": "arrowright",
        "screen": "Trial",
        "block": "Delboeuf",
        "correct_response": "arrowright",
        "trial_type": "image-keyboard-response",
        "trial_index": 54,
        "time_elapsed": 41016,
        "internal_node_id": "0.0-3.0-2.0-1.24",
        "participant_id": "lxjebdm2hg",
        "prestimulus_duration": 981,
        "correct": true,
        "type": "Delboeuf",
        "illusion_strength": 0,
        "illusion_difference": -0.7421935483870967,
        "block_number": 1,
        "trial_number": 25
    },
    {
        "rt": null,
        "stimulus": "<div style=\"font-size:60px;\">+</div>",
        "response": null,
        "screen": "fixation",
        "trial_type": "html-keyboard-response",
        "trial_index": 55,
        "time_elapsed": 41870,
        "internal_node_id": "0.0-3.0-2.0-0.25",
        "participant_id": "lxjebdm2hg",
        "trial_duration": 842
    },
    {
        "rt": 374,
        "stimulus": "stimuli/Delboeuf_str0_diff-0.935548.png",
        "response": "arrowright",
        "screen": "Trial",
        "block": "Delboeuf",
        "correct_response": "arrowright",
        "trial_type": "image-keyboard-response",
        "trial_index": 56,
        "time_elapsed": 42246,
        "internal_node_id": "0.0-3.0-2.0-1.25",
        "participant_id": "lxjebdm2hg",
        "prestimulus_duration": 854,
        "correct": true,
        "type": "Delboeuf",
        "illusion_strength": 0,
        "illusion_difference": -0.9355483870967741,
        "block_number": 1,
        "trial_number": 26
    },
    {
        "rt": null,
        "stimulus": "<div style=\"font-size:60px;\">+</div>",
        "response": null,
        "screen": "fixation",
        "trial_type": "html-keyboard-response",
        "trial_index": 57,
        "time_elapsed": 42826,
        "internal_node_id": "0.0-3.0-2.0-0.26",
        "participant_id": "lxjebdm2hg",
        "trial_duration": 574
    },
    {
        "rt": 385,
        "stimulus": "stimuli/Delboeuf_str0_diff-0.226581.png",
        "response": "arrowright",
        "screen": "Trial",
        "block": "Delboeuf",
        "correct_response": "arrowright",
        "trial_type": "image-keyboard-response",
        "trial_index": 58,
        "time_elapsed": 43214,
        "internal_node_id": "0.0-3.0-2.0-1.26",
        "participant_id": "lxjebdm2hg",
        "prestimulus_duration": 580,
        "correct": true,
        "type": "Delboeuf",
        "illusion_strength": 0,
        "illusion_difference": -0.2265806451612903,
        "block_number": 1,
        "trial_number": 27
    },
    {
        "rt": null,
        "stimulus": "<div style=\"font-size:60px;\">+</div>",
        "response": null,
        "screen": "fixation",
        "trial_type": "html-keyboard-response",
        "trial_index": 59,
        "time_elapsed": 44018,
        "internal_node_id": "0.0-3.0-2.0-0.27",
        "participant_id": "lxjebdm2hg",
        "trial_duration": 798
    },
    {
        "rt": 353,
        "stimulus": "stimuli/Delboeuf_str0_diff-0.419935.png",
        "response": "arrowright",
        "screen": "Trial",
        "block": "Delboeuf",
        "correct_response": "arrowright",
        "trial_type": "image-keyboard-response",
        "trial_index": 60,
        "time_elapsed": 44373,
        "internal_node_id": "0.0-3.0-2.0-1.27",
        "participant_id": "lxjebdm2hg",
        "prestimulus_duration": 804,
        "correct": true,
        "type": "Delboeuf",
        "illusion_strength": 0,
        "illusion_difference": -0.41993548387096774,
        "block_number": 1,
        "trial_number": 28
    },
    {
        "rt": null,
        "stimulus": "<div style=\"font-size:60px;\">+</div>",
        "response": null,
        "screen": "fixation",
        "trial_type": "html-keyboard-response",
        "trial_index": 61,
        "time_elapsed": 44990,
        "internal_node_id": "0.0-3.0-2.0-0.28",
        "participant_id": "lxjebdm2hg",
        "trial_duration": 611
    },
    {
        "rt": 373,
        "stimulus": "stimuli/Delboeuf_str0_diff-0.162129.png",
        "response": "arrowright",
        "screen": "Trial",
        "block": "Delboeuf",
        "correct_response": "arrowright",
        "trial_type": "image-keyboard-response",
        "trial_index": 62,
        "time_elapsed": 45364,
        "internal_node_id": "0.0-3.0-2.0-1.28",
        "participant_id": "lxjebdm2hg",
        "prestimulus_duration": 617,
        "correct": true,
        "type": "Delboeuf",
        "illusion_strength": 0,
        "illusion_difference": -0.16212903225806452,
        "block_number": 1,
        "trial_number": 29
    },
    {
        "rt": null,
        "stimulus": "<div style=\"font-size:60px;\">+</div>",
        "response": null,
        "screen": "fixation",
        "trial_type": "html-keyboard-response",
        "trial_index": 63,
        "time_elapsed": 46336,
        "internal_node_id": "0.0-3.0-2.0-0.29",
        "participant_id": "lxjebdm2hg",
        "trial_duration": 956
    },
    {
        "rt": 461,
        "stimulus": "stimuli/Delboeuf_str0_diff-0.484387.png",
        "response": "arrowright",
        "screen": "Trial",
        "block": "Delboeuf",
        "correct_response": "arrowright",
        "trial_type": "image-keyboard-response",
        "trial_index": 64,
        "time_elapsed": 46799,
        "internal_node_id": "0.0-3.0-2.0-1.29",
        "participant_id": "lxjebdm2hg",
        "prestimulus_duration": 972,
        "correct": true,
        "type": "Delboeuf",
        "illusion_strength": 0,
        "illusion_difference": -0.48438709677419356,
        "block_number": 1,
        "trial_number": 30
    },
    {
        "rt": null,
        "stimulus": "<div style=\"font-size:60px;\">+</div>",
        "response": null,
        "screen": "fixation",
        "trial_type": "html-keyboard-response",
        "trial_index": 65,
        "time_elapsed": 47401,
        "internal_node_id": "0.0-3.0-2.0-0.30",
        "participant_id": "lxjebdm2hg",
        "trial_duration": 596
    },
    {
        "rt": 342,
        "stimulus": "stimuli/Delboeuf_str0_diff0.258806.png",
        "response": "arrowleft",
        "screen": "Trial",
        "block": "Delboeuf",
        "correct_response": "arrowleft",
        "trial_type": "image-keyboard-response",
        "trial_index": 66,
        "time_elapsed": 47745,
        "internal_node_id": "0.0-3.0-2.0-1.30",
        "participant_id": "lxjebdm2hg",
        "prestimulus_duration": 602,
        "correct": true,
        "type": "Delboeuf",
        "illusion_strength": 0,
        "illusion_difference": 0.2588064516129032,
        "block_number": 1,
        "trial_number": 31
    },
    {
        "rt": null,
        "stimulus": "<div style=\"font-size:60px;\">+</div>",
        "response": null,
        "screen": "fixation",
        "trial_type": "html-keyboard-response",
        "trial_index": 67,
        "time_elapsed": 48342,
        "internal_node_id": "0.0-3.0-2.0-0.31",
        "participant_id": "lxjebdm2hg",
        "trial_duration": 588
    },
    {
        "rt": 380,
        "stimulus": "stimuli/Delboeuf_str0_diff0.645516.png",
        "response": "arrowleft",
        "screen": "Trial",
        "block": "Delboeuf",
        "correct_response": "arrowleft",
        "trial_type": "image-keyboard-response",
        "trial_index": 68,
        "time_elapsed": 48724,
        "internal_node_id": "0.0-3.0-2.0-1.31",
        "participant_id": "lxjebdm2hg",
        "prestimulus_duration": 597,
        "correct": true,
        "type": "Delboeuf",
        "illusion_strength": 0,
        "illusion_difference": 0.6455161290322581,
        "block_number": 1,
        "trial_number": 32
    },
    {
        "rt": null,
        "stimulus": "<div style=\"font-size:60px;\">+</div>",
        "response": null,
        "screen": "fixation",
        "trial_type": "html-keyboard-response",
        "trial_index": 69,
        "time_elapsed": 49447,
        "internal_node_id": "0.0-3.0-2.0-0.32",
        "participant_id": "lxjebdm2hg",
        "trial_duration": 708
    },
    {
        "rt": 347,
        "stimulus": "stimuli/Delboeuf_str0_diff0.38771.png",
        "response": "arrowleft",
        "screen": "Trial",
        "block": "Delboeuf",
        "correct_response": "arrowleft",
        "trial_type": "image-keyboard-response",
        "trial_index": 70,
        "time_elapsed": 49797,
        "internal_node_id": "0.0-3.0-2.0-1.32",
        "participant_id": "lxjebdm2hg",
        "prestimulus_duration": 723,
        "correct": true,
        "type": "Delboeuf",
        "illusion_strength": 0,
        "illusion_difference": 0.3877096774193548,
        "block_number": 1,
        "trial_number": 33
    },
    {
        "rt": null,
        "stimulus": "<div style=\"font-size:60px;\">+</div>",
        "response": null,
        "screen": "fixation",
        "trial_type": "html-keyboard-response",
        "trial_index": 71,
        "time_elapsed": 50750,
        "internal_node_id": "0.0-3.0-2.0-0.33",
        "participant_id": "lxjebdm2hg",
        "trial_duration": 949
    },
    {
        "rt": 328,
        "stimulus": "stimuli/Delboeuf_str0_diff0.967774.png",
        "response": "arrowleft",
        "screen": "Trial",
        "block": "Delboeuf",
        "correct_response": "arrowleft",
        "trial_type": "image-keyboard-response",
        "trial_index": 72,
        "time_elapsed": 51080,
        "internal_node_id": "0.0-3.0-2.0-1.33",
        "participant_id": "lxjebdm2hg",
        "prestimulus_duration": 953,
        "correct": true,
        "type": "Delboeuf",
        "illusion_strength": 0,
        "illusion_difference": 0.9677741935483871,
        "block_number": 1,
        "trial_number": 34
    },
    {
        "rt": null,
        "stimulus": "<div style=\"font-size:60px;\">+</div>",
        "response": null,
        "screen": "fixation",
        "trial_type": "html-keyboard-response",
        "trial_index": 73,
        "time_elapsed": 51733,
        "internal_node_id": "0.0-3.0-2.0-0.34",
        "participant_id": "lxjebdm2hg",
        "trial_duration": 639
    },
    {
        "rt": 343,
        "stimulus": "stimuli/Delboeuf_str0_diff0.742194.png",
        "response": "arrowleft",
        "screen": "Trial",
        "block": "Delboeuf",
        "correct_response": "arrowleft",
        "trial_type": "image-keyboard-response",
        "trial_index": 74,
        "time_elapsed": 52078,
        "internal_node_id": "0.0-3.0-2.0-1.34",
        "participant_id": "lxjebdm2hg",
        "prestimulus_duration": 653,
        "correct": true,
        "type": "Delboeuf",
        "illusion_strength": 0,
        "illusion_difference": 0.7421935483870967,
        "block_number": 1,
        "trial_number": 35
    },
    {
        "rt": null,
        "stimulus": "<div style=\"font-size:60px;\">+</div>",
        "response": null,
        "screen": "fixation",
        "trial_type": "html-keyboard-response",
        "trial_index": 75,
        "time_elapsed": 52926,
        "internal_node_id": "0.0-3.0-2.0-0.35",
        "participant_id": "lxjebdm2hg",
        "trial_duration": 835
    },
    {
        "rt": 365,
        "stimulus": "stimuli/Delboeuf_str0_diff0.709968.png",
        "response": "arrowleft",
        "screen": "Trial",
        "block": "Delboeuf",
        "correct_response": "arrowleft",
        "trial_type": "image-keyboard-response",
        "trial_index": 76,
        "time_elapsed": 53293,
        "internal_node_id": "0.0-3.0-2.0-1.35",
        "participant_id": "lxjebdm2hg",
        "prestimulus_duration": 848,
        "correct": true,
        "type": "Delboeuf",
        "illusion_strength": 0,
        "illusion_difference": 0.7099677419354838,
        "block_number": 1,
        "trial_number": 36
    },
    {
        "rt": null,
        "stimulus": "<div style=\"font-size:60px;\">+</div>",
        "response": null,
        "screen": "fixation",
        "trial_type": "html-keyboard-response",
        "trial_index": 77,
        "time_elapsed": 53991,
        "internal_node_id": "0.0-3.0-2.0-0.36",
        "participant_id": "lxjebdm2hg",
        "trial_duration": 692
    },
    {
        "rt": 359,
        "stimulus": "stimuli/Delboeuf_str0_diff-0.61329.png",
        "response": "arrowright",
        "screen": "Trial",
        "block": "Delboeuf",
        "correct_response": "arrowright",
        "trial_type": "image-keyboard-response",
        "trial_index": 78,
        "time_elapsed": 54352,
        "internal_node_id": "0.0-3.0-2.0-1.36",
        "participant_id": "lxjebdm2hg",
        "prestimulus_duration": 698,
        "correct": true,
        "type": "Delboeuf",
        "illusion_strength": 0,
        "illusion_difference": -0.6132903225806452,
        "block_number": 1,
        "trial_number": 37
    },
    {
        "rt": null,
        "stimulus": "<div style=\"font-size:60px;\">+</div>",
        "response": null,
        "screen": "fixation",
        "trial_type": "html-keyboard-response",
        "trial_index": 79,
        "time_elapsed": 54970,
        "internal_node_id": "0.0-3.0-2.0-0.37",
        "participant_id": "lxjebdm2hg",
        "trial_duration": 614
    },
    {
        "rt": 420,
        "stimulus": "stimuli/Delboeuf_str0_diff-0.129903.png",
        "response": "arrowright",
        "screen": "Trial",
        "block": "Delboeuf",
        "correct_response": "arrowright",
        "trial_type": "image-keyboard-response",
        "trial_index": 80,
        "time_elapsed": 55392,
        "internal_node_id": "0.0-3.0-2.0-1.37",
        "participant_id": "lxjebdm2hg",
        "prestimulus_duration": 618,
        "correct": true,
        "type": "Delboeuf",
        "illusion_strength": 0,
        "illusion_difference": -0.1299032258064516,
        "block_number": 1,
        "trial_number": 38
    },
    {
        "rt": null,
        "stimulus": "<div style=\"font-size:60px;\">+</div>",
        "response": null,
        "screen": "fixation",
        "trial_type": "html-keyboard-response",
        "trial_index": 81,
        "time_elapsed": 55993,
        "internal_node_id": "0.0-3.0-2.0-0.38",
        "participant_id": "lxjebdm2hg",
        "trial_duration": 590
    },
    {
        "rt": 338,
        "stimulus": "stimuli/Delboeuf_str0_diff-0.677742.png",
        "response": "arrowright",
        "screen": "Trial",
        "block": "Delboeuf",
        "correct_response": "arrowright",
        "trial_type": "image-keyboard-response",
        "trial_index": 82,
        "time_elapsed": 56333,
        "internal_node_id": "0.0-3.0-2.0-1.38",
        "participant_id": "lxjebdm2hg",
        "prestimulus_duration": 601,
        "correct": true,
        "type": "Delboeuf",
        "illusion_strength": 0,
        "illusion_difference": -0.677741935483871,
        "block_number": 1,
        "trial_number": 39
    },
    {
        "rt": null,
        "stimulus": "<div style=\"font-size:60px;\">+</div>",
        "response": null,
        "screen": "fixation",
        "trial_type": "html-keyboard-response",
        "trial_index": 83,
        "time_elapsed": 57324,
        "internal_node_id": "0.0-3.0-2.0-0.39",
        "participant_id": "lxjebdm2hg",
        "trial_duration": 977
    },
    {
        "rt": 260,
        "stimulus": "stimuli/Delboeuf_str0_diff0.935548.png",
        "response": "arrowleft",
        "screen": "Trial",
        "block": "Delboeuf",
        "correct_response": "arrowleft",
        "trial_type": "image-keyboard-response",
        "trial_index": 84,
        "time_elapsed": 57586,
        "internal_node_id": "0.0-3.0-2.0-1.39",
        "participant_id": "lxjebdm2hg",
        "prestimulus_duration": 991,
        "correct": true,
        "type": "Delboeuf",
        "illusion_strength": 0,
        "illusion_difference": 0.9355483870967741,
        "block_number": 1,
        "trial_number": 40
    },
    {
        "rt": null,
        "stimulus": "<div style=\"font-size:60px;\">+</div>",
        "response": null,
        "screen": "fixation",
        "trial_type": "html-keyboard-response",
        "trial_index": 85,
        "time_elapsed": 58510,
        "internal_node_id": "0.0-3.0-2.0-0.40",
        "participant_id": "lxjebdm2hg",
        "trial_duration": 914
    },
    {
        "rt": 415,
        "stimulus": "stimuli/Delboeuf_str0_diff-1.0.png",
        "response": "arrowright",
        "screen": "Trial",
        "block": "Delboeuf",
        "correct_response": "arrowright",
        "trial_type": "image-keyboard-response",
        "trial_index": 86,
        "time_elapsed": 58927,
        "internal_node_id": "0.0-3.0-2.0-1.40",
        "participant_id": "lxjebdm2hg",
        "prestimulus_duration": 924,
        "correct": true,
        "type": "Delboeuf",
        "illusion_strength": 0,
        "illusion_difference": -1,
        "block_number": 1,
        "trial_number": 41
    },
    {
        "rt": null,
        "stimulus": "<div style=\"font-size:60px;\">+</div>",
        "response": null,
        "screen": "fixation",
        "trial_type": "html-keyboard-response",
        "trial_index": 87,
        "time_elapsed": 59603,
        "internal_node_id": "0.0-3.0-2.0-0.41",
        "participant_id": "lxjebdm2hg",
        "trial_duration": 660
    },
    {
        "rt": 354,
        "stimulus": "stimuli/Delboeuf_str0_diff0.323258.png",
        "response": "arrowleft",
        "screen": "Trial",
        "block": "Delboeuf",
        "correct_response": "arrowleft",
        "trial_type": "image-keyboard-response",
        "trial_index": 88,
        "time_elapsed": 59959,
        "internal_node_id": "0.0-3.0-2.0-1.41",
        "participant_id": "lxjebdm2hg",
        "prestimulus_duration": 676,
        "correct": true,
        "type": "Delboeuf",
        "illusion_strength": 0,
        "illusion_difference": 0.32325806451612904,
        "block_number": 1,
        "trial_number": 42
    },
    {
        "rt": null,
        "stimulus": "<div style=\"font-size:60px;\">+</div>",
        "response": null,
        "screen": "fixation",
        "trial_type": "html-keyboard-response",
        "trial_index": 89,
        "time_elapsed": 60685,
        "internal_node_id": "0.0-3.0-2.0-0.42",
        "participant_id": "lxjebdm2hg",
        "trial_duration": 711
    },
    {
        "rt": 474,
        "stimulus": "stimuli/Delboeuf_str0_diff-0.001.png",
        "response": "arrowright",
        "screen": "Trial",
        "block": "Delboeuf",
        "correct_response": "arrowright",
        "trial_type": "image-keyboard-response",
        "trial_index": 90,
        "time_elapsed": 61161,
        "internal_node_id": "0.0-3.0-2.0-1.42",
        "participant_id": "lxjebdm2hg",
        "prestimulus_duration": 726,
        "correct": true,
        "type": "Delboeuf",
        "illusion_strength": 0,
        "illusion_difference": -0.001,
        "block_number": 1,
        "trial_number": 43
    },
    {
        "rt": null,
        "stimulus": "<div style=\"font-size:60px;\">+</div>",
        "response": null,
        "screen": "fixation",
        "trial_type": "html-keyboard-response",
        "trial_index": 91,
        "time_elapsed": 62146,
        "internal_node_id": "0.0-3.0-2.0-0.43",
        "participant_id": "lxjebdm2hg",
        "trial_duration": 969
    },
    {
        "rt": 365,
        "stimulus": "stimuli/Delboeuf_str0_diff-0.871097.png",
        "response": "arrowright",
        "screen": "Trial",
        "block": "Delboeuf",
        "correct_response": "arrowright",
        "trial_type": "image-keyboard-response",
        "trial_index": 92,
        "time_elapsed": 62512,
        "internal_node_id": "0.0-3.0-2.0-1.43",
        "participant_id": "lxjebdm2hg",
        "prestimulus_duration": 985,
        "correct": true,
        "type": "Delboeuf",
        "illusion_strength": 0,
        "illusion_difference": -0.8710967741935484,
        "block_number": 1,
        "trial_number": 44
    },
    {
        "rt": null,
        "stimulus": "<div style=\"font-size:60px;\">+</div>",
        "response": null,
        "screen": "fixation",
        "trial_type": "html-keyboard-response",
        "trial_index": 93,
        "time_elapsed": 63348,
        "internal_node_id": "0.0-3.0-2.0-0.44",
        "participant_id": "lxjebdm2hg",
        "trial_duration": 826
    },
    {
        "rt": 390,
        "stimulus": "stimuli/Delboeuf_str0_diff-0.355484.png",
        "response": "arrowright",
        "screen": "Trial",
        "block": "Delboeuf",
        "correct_response": "arrowright",
        "trial_type": "image-keyboard-response",
        "trial_index": 94,
        "time_elapsed": 63741,
        "internal_node_id": "0.0-3.0-2.0-1.44",
        "participant_id": "lxjebdm2hg",
        "prestimulus_duration": 836,
        "correct": true,
        "type": "Delboeuf",
        "illusion_strength": 0,
        "illusion_difference": -0.3554838709677419,
        "block_number": 1,
        "trial_number": 45
    },
    {
        "rt": null,
        "stimulus": "<div style=\"font-size:60px;\">+</div>",
        "response": null,
        "screen": "fixation",
        "trial_type": "html-keyboard-response",
        "trial_index": 95,
        "time_elapsed": 64427,
        "internal_node_id": "0.0-3.0-2.0-0.45",
        "participant_id": "lxjebdm2hg",
        "trial_duration": 679
    },
    {
        "rt": 352,
        "stimulus": "stimuli/Delboeuf_str0_diff-0.097677.png",
        "response": "arrowright",
        "screen": "Trial",
        "block": "Delboeuf",
        "correct_response": "arrowright",
        "trial_type": "image-keyboard-response",
        "trial_index": 96,
        "time_elapsed": 64780,
        "internal_node_id": "0.0-3.0-2.0-1.45",
        "participant_id": "lxjebdm2hg",
        "prestimulus_duration": 686,
        "correct": true,
        "type": "Delboeuf",
        "illusion_strength": 0,
        "illusion_difference": -0.0976774193548387,
        "block_number": 1,
        "trial_number": 46
    },
    {
        "rt": null,
        "stimulus": "<div style=\"font-size:60px;\">+</div>",
        "response": null,
        "screen": "fixation",
        "trial_type": "html-keyboard-response",
        "trial_index": 97,
        "time_elapsed": 65575,
        "internal_node_id": "0.0-3.0-2.0-0.46",
        "participant_id": "lxjebdm2hg",
        "trial_duration": 790
    },
    {
        "rt": 417,
        "stimulus": "stimuli/Delboeuf_str0_diff0.419935.png",
        "response": "arrowleft",
        "screen": "Trial",
        "block": "Delboeuf",
        "correct_response": "arrowleft",
        "trial_type": "image-keyboard-response",
        "trial_index": 98,
        "time_elapsed": 65994,
        "internal_node_id": "0.0-3.0-2.0-1.46",
        "participant_id": "lxjebdm2hg",
        "prestimulus_duration": 795,
        "correct": true,
        "type": "Delboeuf",
        "illusion_strength": 0,
        "illusion_difference": 0.41993548387096774,
        "block_number": 1,
        "trial_number": 47
    },
    {
        "rt": null,
        "stimulus": "<div style=\"font-size:60px;\">+</div>",
        "response": null,
        "screen": "fixation",
        "trial_type": "html-keyboard-response",
        "trial_index": 99,
        "time_elapsed": 66704,
        "internal_node_id": "0.0-3.0-2.0-0.47",
        "participant_id": "lxjebdm2hg",
        "trial_duration": 700
    },
    {
        "rt": 470,
        "stimulus": "stimuli/Delboeuf_str0_diff-0.645516.png",
        "response": "arrowright",
        "screen": "Trial",
        "block": "Delboeuf",
        "correct_response": "arrowright",
        "trial_type": "image-keyboard-response",
        "trial_index": 100,
        "time_elapsed": 67177,
        "internal_node_id": "0.0-3.0-2.0-1.47",
        "participant_id": "lxjebdm2hg",
        "prestimulus_duration": 710,
        "correct": true,
        "type": "Delboeuf",
        "illusion_strength": 0,
        "illusion_difference": -0.6455161290322581,
        "block_number": 1,
        "trial_number": 48
    },
    {
        "rt": null,
        "stimulus": "<div style=\"font-size:60px;\">+</div>",
        "response": null,
        "screen": "fixation",
        "trial_type": "html-keyboard-response",
        "trial_index": 101,
        "time_elapsed": 68096,
        "internal_node_id": "0.0-3.0-2.0-0.48",
        "participant_id": "lxjebdm2hg",
        "trial_duration": 916
    },
    {
        "rt": 321,
        "stimulus": "stimuli/Delboeuf_str0_diff0.774419.png",
        "response": "arrowleft",
        "screen": "Trial",
        "block": "Delboeuf",
        "correct_response": "arrowleft",
        "trial_type": "image-keyboard-response",
        "trial_index": 102,
        "time_elapsed": 68419,
        "internal_node_id": "0.0-3.0-2.0-1.48",
        "participant_id": "lxjebdm2hg",
        "prestimulus_duration": 919,
        "correct": true,
        "type": "Delboeuf",
        "illusion_strength": 0,
        "illusion_difference": 0.7744193548387096,
        "block_number": 1,
        "trial_number": 49
    },
    {
        "rt": null,
        "stimulus": "<div style=\"font-size:60px;\">+</div>",
        "response": null,
        "screen": "fixation",
        "trial_type": "html-keyboard-response",
        "trial_index": 103,
        "time_elapsed": 69173,
        "internal_node_id": "0.0-3.0-2.0-0.49",
        "participant_id": "lxjebdm2hg",
        "trial_duration": 740
    },
    {
        "rt": 425,
        "stimulus": "stimuli/Delboeuf_str0_diff0.065452.png",
        "response": "arrowright",
        "screen": "Trial",
        "block": "Delboeuf",
        "correct_response": "arrowleft",
        "trial_type": "image-keyboard-response",
        "trial_index": 104,
        "time_elapsed": 69599,
        "internal_node_id": "0.0-3.0-2.0-1.49",
        "participant_id": "lxjebdm2hg",
        "prestimulus_duration": 754,
        "correct": false,
        "type": "Delboeuf",
        "illusion_strength": 0,
        "illusion_difference": 0.0654516129032258,
        "block_number": 1,
        "trial_number": 50
    },
    {
        "rt": null,
        "stimulus": "<div style=\"font-size:60px;\">+</div>",
        "response": null,
        "screen": "fixation",
        "trial_type": "html-keyboard-response",
        "trial_index": 105,
        "time_elapsed": 70148,
        "internal_node_id": "0.0-3.0-2.0-0.50",
        "participant_id": "lxjebdm2hg",
        "trial_duration": 538
    },
    {
        "rt": 364,
        "stimulus": "stimuli/Delboeuf_str0_diff0.291032.png",
        "response": "arrowleft",
        "screen": "Trial",
        "block": "Delboeuf",
        "correct_response": "arrowleft",
        "trial_type": "image-keyboard-response",
        "trial_index": 106,
        "time_elapsed": 70514,
        "internal_node_id": "0.0-3.0-2.0-1.50",
        "participant_id": "lxjebdm2hg",
        "prestimulus_duration": 549,
        "correct": true,
        "type": "Delboeuf",
        "illusion_strength": 0,
        "illusion_difference": 0.2910322580645161,
        "block_number": 1,
        "trial_number": 51
    },
    {
        "rt": null,
        "stimulus": "<div style=\"font-size:60px;\">+</div>",
        "response": null,
        "screen": "fixation",
        "trial_type": "html-keyboard-response",
        "trial_index": 107,
        "time_elapsed": 71326,
        "internal_node_id": "0.0-3.0-2.0-0.51",
        "participant_id": "lxjebdm2hg",
        "trial_duration": 796
    },
    {
        "rt": 307,
        "stimulus": "stimuli/Delboeuf_str0_diff0.162129.png",
        "response": "arrowleft",
        "screen": "Trial",
        "block": "Delboeuf",
        "correct_response": "arrowleft",
        "trial_type": "image-keyboard-response",
        "trial_index": 108,
        "time_elapsed": 71635,
        "internal_node_id": "0.0-3.0-2.0-1.51",
        "participant_id": "lxjebdm2hg",
        "prestimulus_duration": 812,
        "correct": true,
        "type": "Delboeuf",
        "illusion_strength": 0,
        "illusion_difference": 0.16212903225806452,
        "block_number": 1,
        "trial_number": 52
    },
    {
        "rt": null,
        "stimulus": "<div style=\"font-size:60px;\">+</div>",
        "response": null,
        "screen": "fixation",
        "trial_type": "html-keyboard-response",
        "trial_index": 109,
        "time_elapsed": 72192,
        "internal_node_id": "0.0-3.0-2.0-0.52",
        "participant_id": "lxjebdm2hg",
        "trial_duration": 547
    },
    {
        "rt": 442,
        "stimulus": "stimuli/Delboeuf_str0_diff0.129903.png",
        "response": "arrowright",
        "screen": "Trial",
        "block": "Delboeuf",
        "correct_response": "arrowleft",
        "trial_type": "image-keyboard-response",
        "trial_index": 110,
        "time_elapsed": 72635,
        "internal_node_id": "0.0-3.0-2.0-1.52",
        "participant_id": "lxjebdm2hg",
        "prestimulus_duration": 557,
        "correct": false,
        "type": "Delboeuf",
        "illusion_strength": 0,
        "illusion_difference": 0.1299032258064516,
        "block_number": 1,
        "trial_number": 53
    },
    {
        "rt": null,
        "stimulus": "<div style=\"font-size:60px;\">+</div>",
        "response": null,
        "screen": "fixation",
        "trial_type": "html-keyboard-response",
        "trial_index": 111,
        "time_elapsed": 73211,
        "internal_node_id": "0.0-3.0-2.0-0.53",
        "participant_id": "lxjebdm2hg",
        "trial_duration": 562
    },
    {
        "rt": 391,
        "stimulus": "stimuli/Delboeuf_str0_diff0.194355.png",
        "response": "arrowleft",
        "screen": "Trial",
        "block": "Delboeuf",
        "correct_response": "arrowleft",
        "trial_type": "image-keyboard-response",
        "trial_index": 112,
        "time_elapsed": 73603,
        "internal_node_id": "0.0-3.0-2.0-1.53",
        "participant_id": "lxjebdm2hg",
        "prestimulus_duration": 576,
        "correct": true,
        "type": "Delboeuf",
        "illusion_strength": 0,
        "illusion_difference": 0.1943548387096774,
        "block_number": 1,
        "trial_number": 54
    },
    {
        "rt": null,
        "stimulus": "<div style=\"font-size:60px;\">+</div>",
        "response": null,
        "screen": "fixation",
        "trial_type": "html-keyboard-response",
        "trial_index": 113,
        "time_elapsed": 74344,
        "internal_node_id": "0.0-3.0-2.0-0.54",
        "participant_id": "lxjebdm2hg",
        "trial_duration": 733
    },
    {
        "rt": 379,
        "stimulus": "stimuli/Delboeuf_str0_diff-0.838871.png",
        "response": "arrowleft",
        "screen": "Trial",
        "block": "Delboeuf",
        "correct_response": "arrowright",
        "trial_type": "image-keyboard-response",
        "trial_index": 114,
        "time_elapsed": 74724,
        "internal_node_id": "0.0-3.0-2.0-1.54",
        "participant_id": "lxjebdm2hg",
        "prestimulus_duration": 741,
        "correct": false,
        "type": "Delboeuf",
        "illusion_strength": 0,
        "illusion_difference": -0.8388709677419355,
        "block_number": 1,
        "trial_number": 55
    },
    {
        "rt": null,
        "stimulus": "<div style=\"font-size:60px;\">+</div>",
        "response": null,
        "screen": "fixation",
        "trial_type": "html-keyboard-response",
        "trial_index": 115,
        "time_elapsed": 75458,
        "internal_node_id": "0.0-3.0-2.0-0.55",
        "participant_id": "lxjebdm2hg",
        "trial_duration": 731
    },
    {
        "rt": 409,
        "stimulus": "stimuli/Delboeuf_str0_diff-0.194355.png",
        "response": "arrowright",
        "screen": "Trial",
        "block": "Delboeuf",
        "correct_response": "arrowright",
        "trial_type": "image-keyboard-response",
        "trial_index": 116,
        "time_elapsed": 75868,
        "internal_node_id": "0.0-3.0-2.0-1.55",
        "participant_id": "lxjebdm2hg",
        "prestimulus_duration": 734,
        "correct": true,
        "type": "Delboeuf",
        "illusion_strength": 0,
        "illusion_difference": -0.1943548387096774,
        "block_number": 1,
        "trial_number": 56
    },
    {
        "rt": null,
        "stimulus": "<div style=\"font-size:60px;\">+</div>",
        "response": null,
        "screen": "fixation",
        "trial_type": "html-keyboard-response",
        "trial_index": 117,
        "time_elapsed": 76729,
        "internal_node_id": "0.0-3.0-2.0-0.56",
        "participant_id": "lxjebdm2hg",
        "trial_duration": 851
    },
    {
        "rt": 375,
        "stimulus": "stimuli/Delboeuf_str0_diff-0.548839.png",
        "response": "arrowright",
        "screen": "Trial",
        "block": "Delboeuf",
        "correct_response": "arrowright",
        "trial_type": "image-keyboard-response",
        "trial_index": 118,
        "time_elapsed": 77106,
        "internal_node_id": "0.0-3.0-2.0-1.56",
        "participant_id": "lxjebdm2hg",
        "prestimulus_duration": 861,
        "correct": true,
        "type": "Delboeuf",
        "illusion_strength": 0,
        "illusion_difference": -0.5488387096774193,
        "block_number": 1,
        "trial_number": 57
    },
    {
        "rt": null,
        "stimulus": "<div style=\"font-size:60px;\">+</div>",
        "response": null,
        "screen": "fixation",
        "trial_type": "html-keyboard-response",
        "trial_index": 119,
        "time_elapsed": 77839,
        "internal_node_id": "0.0-3.0-2.0-0.57",
        "participant_id": "lxjebdm2hg",
        "trial_duration": 720
    },
    {
        "rt": 413,
        "stimulus": "stimuli/Delboeuf_str0_diff0.484387.png",
        "response": "arrowleft",
        "screen": "Trial",
        "block": "Delboeuf",
        "correct_response": "arrowleft",
        "trial_type": "image-keyboard-response",
        "trial_index": 120,
        "time_elapsed": 78254,
        "internal_node_id": "0.0-3.0-2.0-1.57",
        "participant_id": "lxjebdm2hg",
        "prestimulus_duration": 733,
        "correct": true,
        "type": "Delboeuf",
        "illusion_strength": 0,
        "illusion_difference": 0.48438709677419356,
        "block_number": 1,
        "trial_number": 58
    },
    {
        "rt": null,
        "stimulus": "<div style=\"font-size:60px;\">+</div>",
        "response": null,
        "screen": "fixation",
        "trial_type": "html-keyboard-response",
        "trial_index": 121,
        "time_elapsed": 79252,
        "internal_node_id": "0.0-3.0-2.0-0.58",
        "participant_id": "lxjebdm2hg",
        "trial_duration": 994
    },
    {
        "rt": 394,
        "stimulus": "stimuli/Delboeuf_str0_diff-0.323258.png",
        "response": "arrowright",
        "screen": "Trial",
        "block": "Delboeuf",
        "correct_response": "arrowright",
        "trial_type": "image-keyboard-response",
        "trial_index": 122,
        "time_elapsed": 79648,
        "internal_node_id": "0.0-3.0-2.0-1.58",
        "participant_id": "lxjebdm2hg",
        "prestimulus_duration": 998,
        "correct": true,
        "type": "Delboeuf",
        "illusion_strength": 0,
        "illusion_difference": -0.32325806451612904,
        "block_number": 1,
        "trial_number": 59
    },
    {
        "rt": null,
        "stimulus": "<div style=\"font-size:60px;\">+</div>",
        "response": null,
        "screen": "fixation",
        "trial_type": "html-keyboard-response",
        "trial_index": 123,
        "time_elapsed": 80257,
        "internal_node_id": "0.0-3.0-2.0-0.59",
        "participant_id": "lxjebdm2hg",
        "trial_duration": 594
    },
    {
        "rt": 425,
        "stimulus": "stimuli/Delboeuf_str0_diff0.033226.png",
        "response": "arrowleft",
        "screen": "Trial",
        "block": "Delboeuf",
        "correct_response": "arrowleft",
        "trial_type": "image-keyboard-response",
        "trial_index": 124,
        "time_elapsed": 80685,
        "internal_node_id": "0.0-3.0-2.0-1.59",
        "participant_id": "lxjebdm2hg",
        "prestimulus_duration": 609,
        "correct": true,
        "type": "Delboeuf",
        "illusion_strength": 0,
        "illusion_difference": 0.0332258064516129,
        "block_number": 1,
        "trial_number": 60
    },
    {
        "rt": null,
        "stimulus": "<div style=\"font-size:60px;\">+</div>",
        "response": null,
        "screen": "fixation",
        "trial_type": "html-keyboard-response",
        "trial_index": 125,
        "time_elapsed": 81546,
        "internal_node_id": "0.0-3.0-2.0-0.60",
        "participant_id": "lxjebdm2hg",
        "trial_duration": 852
    },
    {
        "rt": 357,
        "stimulus": "stimuli/Delboeuf_str0_diff-0.033226.png",
        "response": "arrowleft",
        "screen": "Trial",
        "block": "Delboeuf",
        "correct_response": "arrowright",
        "trial_type": "image-keyboard-response",
        "trial_index": 126,
        "time_elapsed": 81904,
        "internal_node_id": "0.0-3.0-2.0-1.60",
        "participant_id": "lxjebdm2hg",
        "prestimulus_duration": 861,
        "correct": false,
        "type": "Delboeuf",
        "illusion_strength": 0,
        "illusion_difference": -0.0332258064516129,
        "block_number": 1,
        "trial_number": 61
    },
    {
        "rt": null,
        "stimulus": "<div style=\"font-size:60px;\">+</div>",
        "response": null,
        "screen": "fixation",
        "trial_type": "html-keyboard-response",
        "trial_index": 127,
        "time_elapsed": 82817,
        "internal_node_id": "0.0-3.0-2.0-0.61",
        "participant_id": "lxjebdm2hg",
        "trial_duration": 910
    },
    {
        "rt": 582,
        "stimulus": "stimuli/Delboeuf_str0_diff0.097677.png",
        "response": "arrowright",
        "screen": "Trial",
        "block": "Delboeuf",
        "correct_response": "arrowleft",
        "trial_type": "image-keyboard-response",
        "trial_index": 128,
        "time_elapsed": 83401,
        "internal_node_id": "0.0-3.0-2.0-1.61",
        "participant_id": "lxjebdm2hg",
        "prestimulus_duration": 913,
        "correct": false,
        "type": "Delboeuf",
        "illusion_strength": 0,
        "illusion_difference": 0.0976774193548387,
        "block_number": 1,
        "trial_number": 62
    },
    {
        "rt": null,
        "stimulus": "<div style=\"font-size:60px;\">+</div>",
        "response": null,
        "screen": "fixation",
        "trial_type": "html-keyboard-response",
        "trial_index": 129,
        "time_elapsed": 83931,
        "internal_node_id": "0.0-3.0-2.0-0.62",
        "participant_id": "lxjebdm2hg",
        "trial_duration": 523
    },
    {
        "rt": 558,
        "stimulus": "stimuli/Delboeuf_str0_diff-0.581065.png",
        "response": "arrowright",
        "screen": "Trial",
        "block": "Delboeuf",
        "correct_response": "arrowright",
        "trial_type": "image-keyboard-response",
        "trial_index": 130,
        "time_elapsed": 84491,
        "internal_node_id": "0.0-3.0-2.0-1.62",
        "participant_id": "lxjebdm2hg",
        "prestimulus_duration": 530,
        "correct": true,
        "type": "Delboeuf",
        "illusion_strength": 0,
        "illusion_difference": -0.5810645161290322,
        "block_number": 1,
        "trial_number": 63
    },
    {
        "rt": null,
        "stimulus": "<div style=\"font-size:60px;\">+</div>",
        "response": null,
        "screen": "fixation",
        "trial_type": "html-keyboard-response",
        "trial_index": 131,
        "time_elapsed": 85309,
        "internal_node_id": "0.0-3.0-2.0-0.63",
        "participant_id": "lxjebdm2hg",
        "trial_duration": 804
    },
    {
        "rt": 376,
        "stimulus": "stimuli/Delboeuf_str0_diff0.452161.png",
        "response": "arrowleft",
        "screen": "Trial",
        "block": "Delboeuf",
        "correct_response": "arrowleft",
        "trial_type": "image-keyboard-response",
        "trial_index": 132,
        "time_elapsed": 85687,
        "internal_node_id": "0.0-3.0-2.0-1.63",
        "participant_id": "lxjebdm2hg",
        "prestimulus_duration": 818,
        "correct": true,
        "type": "Delboeuf",
        "illusion_strength": 0,
        "illusion_difference": 0.4521612903225806,
        "block_number": 1,
        "trial_number": 64
    },
    {
        "rt": 1785,
        "stimulus": "<p>Your score for this illusion is <p style=\"color: black; font-size: 48px; font-weight: bold;\">92</p><hr><p>Can you do better in the next block?</p>",
        "response": 0,
        "screen": "block_results",
        "trial_type": "html-button-response",
        "trial_index": 133,
        "time_elapsed": 87480,
        "internal_node_id": "0.0-3.0-3.0",
        "participant_id": "lxjebdm2hg"
    },
    {
        "success": true,
        "timeout": false,
        "failed_images": [],
        "failed_audio": [],
        "failed_video": [],
        "trial_type": "preload",
        "trial_index": 134,
        "time_elapsed": 88455,
        "internal_node_id": "0.0-4.0-0.0",
        "participant_id": "lxjebdm2hg"
    },
    {
        "rt": 973,
        "stimulus": "<p><b>Part 2</b></p><p>In this part, two horizontal red lines will appear one above the other.</p><p>Your task is to select which <b>line is longer</b> in length as fast as you can, without making errors.</p><p>Press <b>the UP or the DOWN arrow</b> to indicate where is the longer <b>red line.</b></p><div style='float: center'><img src='utils/stimuli_demo/MullerLyer_Demo.png' height='300'></img><p><img src='utils/answer/answer_updown_keyboard.PNG' height='150'></img></p><p class='small'>In this example, the correct answer is the <b>UP arrow</b>.</p></div><p>Are you ready? <b>Press ENTER to start</b></p>",
        "response": "enter",
        "trial_type": "html-keyboard-response",
        "trial_index": 135,
        "time_elapsed": 89430,
        "internal_node_id": "0.0-4.0-1.0",
        "participant_id": "lxjebdm2hg"
    },
    {
        "rt": null,
        "stimulus": "<div style=\"font-size:60px;\">+</div>",
        "response": null,
        "screen": "fixation",
        "trial_type": "html-keyboard-response",
        "trial_index": 136,
        "time_elapsed": 90880,
        "internal_node_id": "0.0-4.0-2.0-0.0",
        "participant_id": "lxjebdm2hg",
        "trial_duration": 932
    },
    {
        "rt": 491,
        "stimulus": "stimuli/MullerLyer_str0_diff0.385968.png",
        "response": "arrowup",
        "screen": "Trial",
        "block": "MullerLyer",
        "correct_response": "arrowup",
        "trial_type": "image-keyboard-response",
        "trial_index": 137,
        "time_elapsed": 91372,
        "internal_node_id": "0.0-4.0-2.0-1.0",
        "participant_id": "lxjebdm2hg",
        "prestimulus_duration": 1450,
        "correct": true,
        "type": "MullerLyer",
        "illusion_strength": 0,
        "illusion_difference": 0.3859677419354839,
        "block_number": 2,
        "trial_number": 1
    },
    {
        "rt": null,
        "stimulus": "<div style=\"font-size:60px;\">+</div>",
        "response": null,
        "screen": "fixation",
        "trial_type": "html-keyboard-response",
        "trial_index": 138,
        "time_elapsed": 92045,
        "internal_node_id": "0.0-4.0-2.0-0.1",
        "participant_id": "lxjebdm2hg",
        "trial_duration": 665
    },
    {
        "rt": 391,
        "stimulus": "stimuli/MullerLyer_str0_diff0.237903.png",
        "response": "arrowup",
        "screen": "Trial",
        "block": "MullerLyer",
        "correct_response": "arrowup",
        "trial_type": "image-keyboard-response",
        "trial_index": 139,
        "time_elapsed": 92438,
        "internal_node_id": "0.0-4.0-2.0-1.1",
        "participant_id": "lxjebdm2hg",
        "prestimulus_duration": 673,
        "correct": true,
        "type": "MullerLyer",
        "illusion_strength": 0,
        "illusion_difference": 0.23790322580645162,
        "block_number": 2,
        "trial_number": 2
    },
    {
        "rt": null,
        "stimulus": "<div style=\"font-size:60px;\">+</div>",
        "response": null,
        "screen": "fixation",
        "trial_type": "html-keyboard-response",
        "trial_index": 140,
        "time_elapsed": 93434,
        "internal_node_id": "0.0-4.0-2.0-0.2",
        "participant_id": "lxjebdm2hg",
        "trial_duration": 989
    },
    {
        "rt": 308,
        "stimulus": "stimuli/MullerLyer_str0_diff-0.104645.png",
        "response": "arrowup",
        "screen": "Trial",
        "block": "MullerLyer",
        "correct_response": "arrowdown",
        "trial_type": "image-keyboard-response",
        "trial_index": 141,
        "time_elapsed": 93743,
        "internal_node_id": "0.0-4.0-2.0-1.2",
        "participant_id": "lxjebdm2hg",
        "prestimulus_duration": 996,
        "correct": false,
        "type": "MullerLyer",
        "illusion_strength": 0,
        "illusion_difference": -0.10464516129032259,
        "block_number": 2,
        "trial_number": 3
    },
    {
        "rt": null,
        "stimulus": "<div style=\"font-size:60px;\">+</div>",
        "response": null,
        "screen": "fixation",
        "trial_type": "html-keyboard-response",
        "trial_index": 142,
        "time_elapsed": 94662,
        "internal_node_id": "0.0-4.0-2.0-0.3",
        "participant_id": "lxjebdm2hg",
        "trial_duration": 910
    },
    {
        "rt": 423,
        "stimulus": "stimuli/MullerLyer_str0_diff0.400774.png",
        "response": "arrowup",
        "screen": "Trial",
        "block": "MullerLyer",
        "correct_response": "arrowup",
        "trial_type": "image-keyboard-response",
        "trial_index": 143,
        "time_elapsed": 95087,
        "internal_node_id": "0.0-4.0-2.0-1.3",
        "participant_id": "lxjebdm2hg",
        "prestimulus_duration": 919,
        "correct": true,
        "type": "MullerLyer",
        "illusion_strength": 0,
        "illusion_difference": 0.4007741935483871,
        "block_number": 2,
        "trial_number": 4
    },
    {
        "rt": null,
        "stimulus": "<div style=\"font-size:60px;\">+</div>",
        "response": null,
        "screen": "fixation",
        "trial_type": "html-keyboard-response",
        "trial_index": 144,
        "time_elapsed": 95948,
        "internal_node_id": "0.0-4.0-2.0-0.4",
        "participant_id": "lxjebdm2hg",
        "trial_duration": 860
    },
    {
        "rt": 446,
        "stimulus": "stimuli/MullerLyer_str0_diff0.267516.png",
        "response": "arrowup",
        "screen": "Trial",
        "block": "MullerLyer",
        "correct_response": "arrowup",
        "trial_type": "image-keyboard-response",
        "trial_index": 145,
        "time_elapsed": 96396,
        "internal_node_id": "0.0-4.0-2.0-1.4",
        "participant_id": "lxjebdm2hg",
        "prestimulus_duration": 861,
        "correct": true,
        "type": "MullerLyer",
        "illusion_strength": 0,
        "illusion_difference": 0.2675161290322581,
        "block_number": 2,
        "trial_number": 5
    },
    {
        "rt": null,
        "stimulus": "<div style=\"font-size:60px;\">+</div>",
        "response": null,
        "screen": "fixation",
        "trial_type": "html-keyboard-response",
        "trial_index": 146,
        "time_elapsed": 97342,
        "internal_node_id": "0.0-4.0-2.0-0.5",
        "participant_id": "lxjebdm2hg",
        "trial_duration": 935
    },
    {
        "rt": 366,
        "stimulus": "stimuli/MullerLyer_str0_diff-0.20829.png",
        "response": "arrowdown",
        "screen": "Trial",
        "block": "MullerLyer",
        "correct_response": "arrowdown",
        "trial_type": "image-keyboard-response",
        "trial_index": 147,
        "time_elapsed": 97710,
        "internal_node_id": "0.0-4.0-2.0-1.5",
        "participant_id": "lxjebdm2hg",
        "prestimulus_duration": 946,
        "correct": true,
        "type": "MullerLyer",
        "illusion_strength": 0,
        "illusion_difference": -0.20829032258064517,
        "block_number": 2,
        "trial_number": 6
    },
    {
        "rt": null,
        "stimulus": "<div style=\"font-size:60px;\">+</div>",
        "response": null,
        "screen": "fixation",
        "trial_type": "html-keyboard-response",
        "trial_index": 148,
        "time_elapsed": 98283,
        "internal_node_id": "0.0-4.0-2.0-0.6",
        "participant_id": "lxjebdm2hg",
        "trial_duration": 563
    },
    {
        "rt": 656,
        "stimulus": "stimuli/MullerLyer_str0_diff0.178677.png",
        "response": "arrowup",
        "screen": "Trial",
        "block": "MullerLyer",
        "correct_response": "arrowup",
        "trial_type": "image-keyboard-response",
        "trial_index": 149,
        "time_elapsed": 98941,
        "internal_node_id": "0.0-4.0-2.0-1.6",
        "participant_id": "lxjebdm2hg",
        "prestimulus_duration": 573,
        "correct": true,
        "type": "MullerLyer",
        "illusion_strength": 0,
        "illusion_difference": 0.17867741935483872,
        "block_number": 2,
        "trial_number": 7
    },
    {
        "rt": null,
        "stimulus": "<div style=\"font-size:60px;\">+</div>",
        "response": null,
        "screen": "fixation",
        "trial_type": "html-keyboard-response",
        "trial_index": 150,
        "time_elapsed": 99460,
        "internal_node_id": "0.0-4.0-2.0-0.7",
        "participant_id": "lxjebdm2hg",
        "trial_duration": 505
    },
    {
        "rt": 462,
        "stimulus": "stimuli/MullerLyer_str0_diff0.415581.png",
        "response": "arrowup",
        "screen": "Trial",
        "block": "MullerLyer",
        "correct_response": "arrowup",
        "trial_type": "image-keyboard-response",
        "trial_index": 151,
        "time_elapsed": 99923,
        "internal_node_id": "0.0-4.0-2.0-1.7",
        "participant_id": "lxjebdm2hg",
        "prestimulus_duration": 519,
        "correct": true,
        "type": "MullerLyer",
        "illusion_strength": 0,
        "illusion_difference": 0.41558064516129034,
        "block_number": 2,
        "trial_number": 8
    },
    {
        "rt": null,
        "stimulus": "<div style=\"font-size:60px;\">+</div>",
        "response": null,
        "screen": "fixation",
        "trial_type": "html-keyboard-response",
        "trial_index": 152,
        "time_elapsed": 100542,
        "internal_node_id": "0.0-4.0-2.0-0.8",
        "participant_id": "lxjebdm2hg",
        "trial_duration": 606
    },
    {
        "rt": 422,
        "stimulus": "stimuli/MullerLyer_str0_diff0.282323.png",
        "response": "arrowup",
        "screen": "Trial",
        "block": "MullerLyer",
        "correct_response": "arrowup",
        "trial_type": "image-keyboard-response",
        "trial_index": 153,
        "time_elapsed": 100966,
        "internal_node_id": "0.0-4.0-2.0-1.8",
        "participant_id": "lxjebdm2hg",
        "prestimulus_duration": 619,
        "correct": true,
        "type": "MullerLyer",
        "illusion_strength": 0,
        "illusion_difference": 0.2823225806451613,
        "block_number": 2,
        "trial_number": 9
    },
    {
        "rt": null,
        "stimulus": "<div style=\"font-size:60px;\">+</div>",
        "response": null,
        "screen": "fixation",
        "trial_type": "html-keyboard-response",
        "trial_index": 154,
        "time_elapsed": 101624,
        "internal_node_id": "0.0-4.0-2.0-0.9",
        "participant_id": "lxjebdm2hg",
        "trial_duration": 645
    },
    {
        "rt": 438,
        "stimulus": "stimuli/MullerLyer_str0_diff0.20829.png",
        "response": "arrowup",
        "screen": "Trial",
        "block": "MullerLyer",
        "correct_response": "arrowup",
        "trial_type": "image-keyboard-response",
        "trial_index": 155,
        "time_elapsed": 102064,
        "internal_node_id": "0.0-4.0-2.0-1.9",
        "participant_id": "lxjebdm2hg",
        "prestimulus_duration": 658,
        "correct": true,
        "type": "MullerLyer",
        "illusion_strength": 0,
        "illusion_difference": 0.20829032258064517,
        "block_number": 2,
        "trial_number": 10
    },
    {
        "rt": null,
        "stimulus": "<div style=\"font-size:60px;\">+</div>",
        "response": null,
        "screen": "fixation",
        "trial_type": "html-keyboard-response",
        "trial_index": 156,
        "time_elapsed": 102835,
        "internal_node_id": "0.0-4.0-2.0-0.10",
        "participant_id": "lxjebdm2hg",
        "trial_duration": 767
    },
    {
        "rt": 410,
        "stimulus": "stimuli/MullerLyer_str0_diff-0.237903.png",
        "response": "arrowdown",
        "screen": "Trial",
        "block": "MullerLyer",
        "correct_response": "arrowdown",
        "trial_type": "image-keyboard-response",
        "trial_index": 157,
        "time_elapsed": 103247,
        "internal_node_id": "0.0-4.0-2.0-1.10",
        "participant_id": "lxjebdm2hg",
        "prestimulus_duration": 771,
        "correct": true,
        "type": "MullerLyer",
        "illusion_strength": 0,
        "illusion_difference": -0.23790322580645162,
        "block_number": 2,
        "trial_number": 11
    },
    {
        "rt": null,
        "stimulus": "<div style=\"font-size:60px;\">+</div>",
        "response": null,
        "screen": "fixation",
        "trial_type": "html-keyboard-response",
        "trial_index": 158,
        "time_elapsed": 103848,
        "internal_node_id": "0.0-4.0-2.0-0.11",
        "participant_id": "lxjebdm2hg",
        "trial_duration": 587
    },
    {
        "rt": 497,
        "stimulus": "stimuli/MullerLyer_str0_diff0.311935.png",
        "response": "arrowup",
        "screen": "Trial",
        "block": "MullerLyer",
        "correct_response": "arrowup",
        "trial_type": "image-keyboard-response",
        "trial_index": 159,
        "time_elapsed": 104347,
        "internal_node_id": "0.0-4.0-2.0-1.11",
        "participant_id": "lxjebdm2hg",
        "prestimulus_duration": 601,
        "correct": true,
        "type": "MullerLyer",
        "illusion_strength": 0,
        "illusion_difference": 0.31193548387096776,
        "block_number": 2,
        "trial_number": 12
    },
    {
        "rt": null,
        "stimulus": "<div style=\"font-size:60px;\">+</div>",
        "response": null,
        "screen": "fixation",
        "trial_type": "html-keyboard-response",
        "trial_index": 160,
        "time_elapsed": 105117,
        "internal_node_id": "0.0-4.0-2.0-0.12",
        "participant_id": "lxjebdm2hg",
        "trial_duration": 762
    },
    {
        "rt": 381,
        "stimulus": "stimuli/MullerLyer_str0_diff0.46.png",
        "response": "arrowup",
        "screen": "Trial",
        "block": "MullerLyer",
        "correct_response": "arrowup",
        "trial_type": "image-keyboard-response",
        "trial_index": 161,
        "time_elapsed": 105500,
        "internal_node_id": "0.0-4.0-2.0-1.12",
        "participant_id": "lxjebdm2hg",
        "prestimulus_duration": 770,
        "correct": true,
        "type": "MullerLyer",
        "illusion_strength": 0,
        "illusion_difference": 0.46,
        "block_number": 2,
        "trial_number": 13
    },
    {
        "rt": null,
        "stimulus": "<div style=\"font-size:60px;\">+</div>",
        "response": null,
        "screen": "fixation",
        "trial_type": "html-keyboard-response",
        "trial_index": 162,
        "time_elapsed": 106498,
        "internal_node_id": "0.0-4.0-2.0-0.13",
        "participant_id": "lxjebdm2hg",
        "trial_duration": 986
    },
    {
        "rt": 377,
        "stimulus": "stimuli/MullerLyer_str0_diff0.193484.png",
        "response": "arrowdown",
        "screen": "Trial",
        "block": "MullerLyer",
        "correct_response": "arrowup",
        "trial_type": "image-keyboard-response",
        "trial_index": 163,
        "time_elapsed": 106878,
        "internal_node_id": "0.0-4.0-2.0-1.13",
        "participant_id": "lxjebdm2hg",
        "prestimulus_duration": 998,
        "correct": false,
        "type": "MullerLyer",
        "illusion_strength": 0,
        "illusion_difference": 0.19348387096774194,
        "block_number": 2,
        "trial_number": 14
    },
    {
        "rt": null,
        "stimulus": "<div style=\"font-size:60px;\">+</div>",
        "response": null,
        "screen": "fixation",
        "trial_type": "html-keyboard-response",
        "trial_index": 164,
        "time_elapsed": 107824,
        "internal_node_id": "0.0-4.0-2.0-0.14",
        "participant_id": "lxjebdm2hg",
        "trial_duration": 944
    },
    {
        "rt": 281,
        "stimulus": "stimuli/MullerLyer_str0_diff-0.001.png",
        "response": "arrowup",
        "screen": "Trial",
        "block": "MullerLyer",
        "correct_response": "arrowdown",
        "trial_type": "image-keyboard-response",
        "trial_index": 165,
        "time_elapsed": 108106,
        "internal_node_id": "0.0-4.0-2.0-1.14",
        "participant_id": "lxjebdm2hg",
        "prestimulus_duration": 946,
        "correct": false,
        "type": "MullerLyer",
        "illusion_strength": 0,
        "illusion_difference": -0.001,
        "block_number": 2,
        "trial_number": 15
    },
    {
        "rt": null,
        "stimulus": "<div style=\"font-size:60px;\">+</div>",
        "response": null,
        "screen": "fixation",
        "trial_type": "html-keyboard-response",
        "trial_index": 166,
        "time_elapsed": 108869,
        "internal_node_id": "0.0-4.0-2.0-0.15",
        "participant_id": "lxjebdm2hg",
        "trial_duration": 756
    },
    {
        "rt": 343,
        "stimulus": "stimuli/MullerLyer_str0_diff0.430387.png",
        "response": "arrowup",
        "screen": "Trial",
        "block": "MullerLyer",
        "correct_response": "arrowup",
        "trial_type": "image-keyboard-response",
        "trial_index": 167,
        "time_elapsed": 109213,
        "internal_node_id": "0.0-4.0-2.0-1.15",
        "participant_id": "lxjebdm2hg",
        "prestimulus_duration": 763,
        "correct": true,
        "type": "MullerLyer",
        "illusion_strength": 0,
        "illusion_difference": 0.43038709677419357,
        "block_number": 2,
        "trial_number": 16
    },
    {
        "rt": null,
        "stimulus": "<div style=\"font-size:60px;\">+</div>",
        "response": null,
        "screen": "fixation",
        "trial_type": "html-keyboard-response",
        "trial_index": 168,
        "time_elapsed": 109763,
        "internal_node_id": "0.0-4.0-2.0-0.16",
        "participant_id": "lxjebdm2hg",
        "trial_duration": 540
    },
    {
        "rt": 538,
        "stimulus": "stimuli/MullerLyer_str0_diff0.134258.png",
        "response": "arrowup",
        "screen": "Trial",
        "block": "MullerLyer",
        "correct_response": "arrowup",
        "trial_type": "image-keyboard-response",
        "trial_index": 169,
        "time_elapsed": 110303,
        "internal_node_id": "0.0-4.0-2.0-1.16",
        "participant_id": "lxjebdm2hg",
        "prestimulus_duration": 550,
        "correct": true,
        "type": "MullerLyer",
        "illusion_strength": 0,
        "illusion_difference": 0.13425806451612904,
        "block_number": 2,
        "trial_number": 17
    },
    {
        "rt": null,
        "stimulus": "<div style=\"font-size:60px;\">+</div>",
        "response": null,
        "screen": "fixation",
        "trial_type": "html-keyboard-response",
        "trial_index": 170,
        "time_elapsed": 111096,
        "internal_node_id": "0.0-4.0-2.0-0.17",
        "participant_id": "lxjebdm2hg",
        "trial_duration": 777
    },
    {
        "rt": 467,
        "stimulus": "stimuli/MullerLyer_str0_diff-0.371161.png",
        "response": "arrowdown",
        "screen": "Trial",
        "block": "MullerLyer",
        "correct_response": "arrowdown",
        "trial_type": "image-keyboard-response",
        "trial_index": 171,
        "time_elapsed": 111566,
        "internal_node_id": "0.0-4.0-2.0-1.17",
        "participant_id": "lxjebdm2hg",
        "prestimulus_duration": 793,
        "correct": true,
        "type": "MullerLyer",
        "illusion_strength": 0,
        "illusion_difference": -0.37116129032258066,
        "block_number": 2,
        "trial_number": 18
    },
    {
        "rt": null,
        "stimulus": "<div style=\"font-size:60px;\">+</div>",
        "response": null,
        "screen": "fixation",
        "trial_type": "html-keyboard-response",
        "trial_index": 172,
        "time_elapsed": 112129,
        "internal_node_id": "0.0-4.0-2.0-0.18",
        "participant_id": "lxjebdm2hg",
        "trial_duration": 548
    },
    {
        "rt": 446,
        "stimulus": "stimuli/MullerLyer_str0_diff-0.445194.png",
        "response": "arrowdown",
        "screen": "Trial",
        "block": "MullerLyer",
        "correct_response": "arrowdown",
        "trial_type": "image-keyboard-response",
        "trial_index": 173,
        "time_elapsed": 112576,
        "internal_node_id": "0.0-4.0-2.0-1.18",
        "participant_id": "lxjebdm2hg",
        "prestimulus_duration": 563,
        "correct": true,
        "type": "MullerLyer",
        "illusion_strength": 0,
        "illusion_difference": -0.4451935483870968,
        "block_number": 2,
        "trial_number": 19
    },
    {
        "rt": null,
        "stimulus": "<div style=\"font-size:60px;\">+</div>",
        "response": null,
        "screen": "fixation",
        "trial_type": "html-keyboard-response",
        "trial_index": 174,
        "time_elapsed": 113464,
        "internal_node_id": "0.0-4.0-2.0-0.19",
        "participant_id": "lxjebdm2hg",
        "trial_duration": 882
    },
    {
        "rt": 537,
        "stimulus": "stimuli/MullerLyer_str0_diff0.001.png",
        "response": "arrowup",
        "screen": "Trial",
        "block": "MullerLyer",
        "correct_response": "arrowup",
        "trial_type": "image-keyboard-response",
        "trial_index": 175,
        "time_elapsed": 114003,
        "internal_node_id": "0.0-4.0-2.0-1.19",
        "participant_id": "lxjebdm2hg",
        "prestimulus_duration": 888,
        "correct": true,
        "type": "MullerLyer",
        "illusion_strength": 0,
        "illusion_difference": 0.001,
        "block_number": 2,
        "trial_number": 20
    },
    {
        "rt": null,
        "stimulus": "<div style=\"font-size:60px;\">+</div>",
        "response": null,
        "screen": "fixation",
        "trial_type": "html-keyboard-response",
        "trial_index": 176,
        "time_elapsed": 114607,
        "internal_node_id": "0.0-4.0-2.0-0.20",
        "participant_id": "lxjebdm2hg",
        "trial_duration": 600
    },
    {
        "rt": 716,
        "stimulus": "stimuli/MullerLyer_str0_diff-0.267516.png",
        "response": "arrowdown",
        "screen": "Trial",
        "block": "MullerLyer",
        "correct_response": "arrowdown",
        "trial_type": "image-keyboard-response",
        "trial_index": 177,
        "time_elapsed": 115326,
        "internal_node_id": "0.0-4.0-2.0-1.20",
        "participant_id": "lxjebdm2hg",
        "prestimulus_duration": 604,
        "correct": true,
        "type": "MullerLyer",
        "illusion_strength": 0,
        "illusion_difference": -0.2675161290322581,
        "block_number": 2,
        "trial_number": 21
    },
    {
        "rt": null,
        "stimulus": "<div style=\"font-size:60px;\">+</div>",
        "response": null,
        "screen": "fixation",
        "trial_type": "html-keyboard-response",
        "trial_index": 178,
        "time_elapsed": 116286,
        "internal_node_id": "0.0-4.0-2.0-0.21",
        "participant_id": "lxjebdm2hg",
        "trial_duration": 948
    },
    {
        "rt": 537,
        "stimulus": "stimuli/MullerLyer_str0_diff-0.193484.png",
        "response": "arrowup",
        "screen": "Trial",
        "block": "MullerLyer",
        "correct_response": "arrowdown",
        "trial_type": "image-keyboard-response",
        "trial_index": 179,
        "time_elapsed": 116824,
        "internal_node_id": "0.0-4.0-2.0-1.21",
        "participant_id": "lxjebdm2hg",
        "prestimulus_duration": 960,
        "correct": false,
        "type": "MullerLyer",
        "illusion_strength": 0,
        "illusion_difference": -0.19348387096774194,
        "block_number": 2,
        "trial_number": 22
    },
    {
        "rt": null,
        "stimulus": "<div style=\"font-size:60px;\">+</div>",
        "response": null,
        "screen": "fixation",
        "trial_type": "html-keyboard-response",
        "trial_index": 180,
        "time_elapsed": 117761,
        "internal_node_id": "0.0-4.0-2.0-0.22",
        "participant_id": "lxjebdm2hg",
        "trial_duration": 931
    },
    {
        "rt": 388,
        "stimulus": "stimuli/MullerLyer_str0_diff0.25271.png",
        "response": "arrowup",
        "screen": "Trial",
        "block": "MullerLyer",
        "correct_response": "arrowup",
        "trial_type": "image-keyboard-response",
        "trial_index": 181,
        "time_elapsed": 118155,
        "internal_node_id": "0.0-4.0-2.0-1.22",
        "participant_id": "lxjebdm2hg",
        "prestimulus_duration": 937,
        "correct": true,
        "type": "MullerLyer",
        "illusion_strength": 0,
        "illusion_difference": 0.25270967741935485,
        "block_number": 2,
        "trial_number": 23
    },
    {
        "rt": null,
        "stimulus": "<div style=\"font-size:60px;\">+</div>",
        "response": null,
        "screen": "fixation",
        "trial_type": "html-keyboard-response",
        "trial_index": 182,
        "time_elapsed": 118973,
        "internal_node_id": "0.0-4.0-2.0-0.23",
        "participant_id": "lxjebdm2hg",
        "trial_duration": 801
    },
    {
        "rt": 389,
        "stimulus": "stimuli/MullerLyer_str0_diff0.163871.png",
        "response": "arrowup",
        "screen": "Trial",
        "block": "MullerLyer",
        "correct_response": "arrowup",
        "trial_type": "image-keyboard-response",
        "trial_index": 183,
        "time_elapsed": 119364,
        "internal_node_id": "0.0-4.0-2.0-1.23",
        "participant_id": "lxjebdm2hg",
        "prestimulus_duration": 818,
        "correct": true,
        "type": "MullerLyer",
        "illusion_strength": 0,
        "illusion_difference": 0.1638709677419355,
        "block_number": 2,
        "trial_number": 24
    },
    {
        "rt": null,
        "stimulus": "<div style=\"font-size:60px;\">+</div>",
        "response": null,
        "screen": "fixation",
        "trial_type": "html-keyboard-response",
        "trial_index": 184,
        "time_elapsed": 120260,
        "internal_node_id": "0.0-4.0-2.0-0.24",
        "participant_id": "lxjebdm2hg",
        "trial_duration": 878
    },
    {
        "rt": 380,
        "stimulus": "stimuli/MullerLyer_str0_diff-0.149065.png",
        "response": "arrowup",
        "screen": "Trial",
        "block": "MullerLyer",
        "correct_response": "arrowdown",
        "trial_type": "image-keyboard-response",
        "trial_index": 185,
        "time_elapsed": 120642,
        "internal_node_id": "0.0-4.0-2.0-1.24",
        "participant_id": "lxjebdm2hg",
        "prestimulus_duration": 896,
        "correct": false,
        "type": "MullerLyer",
        "illusion_strength": 0,
        "illusion_difference": -0.14906451612903227,
        "block_number": 2,
        "trial_number": 25
    },
    {
        "rt": null,
        "stimulus": "<div style=\"font-size:60px;\">+</div>",
        "response": null,
        "screen": "fixation",
        "trial_type": "html-keyboard-response",
        "trial_index": 186,
        "time_elapsed": 121278,
        "internal_node_id": "0.0-4.0-2.0-0.25",
        "participant_id": "lxjebdm2hg",
        "trial_duration": 627
    },
    {
        "rt": 460,
        "stimulus": "stimuli/MullerLyer_str0_diff-0.223097.png",
        "response": "arrowdown",
        "screen": "Trial",
        "block": "MullerLyer",
        "correct_response": "arrowdown",
        "trial_type": "image-keyboard-response",
        "trial_index": 187,
        "time_elapsed": 121740,
        "internal_node_id": "0.0-4.0-2.0-1.25",
        "participant_id": "lxjebdm2hg",
        "prestimulus_duration": 636,
        "correct": true,
        "type": "MullerLyer",
        "illusion_strength": 0,
        "illusion_difference": -0.2230967741935484,
        "block_number": 2,
        "trial_number": 26
    },
    {
        "rt": null,
        "stimulus": "<div style=\"font-size:60px;\">+</div>",
        "response": null,
        "screen": "fixation",
        "trial_type": "html-keyboard-response",
        "trial_index": 188,
        "time_elapsed": 122343,
        "internal_node_id": "0.0-4.0-2.0-0.26",
        "participant_id": "lxjebdm2hg",
        "trial_duration": 593
    },
    {
        "rt": 465,
        "stimulus": "stimuli/MullerLyer_str0_diff0.045419.png",
        "response": "arrowdown",
        "screen": "Trial",
        "block": "MullerLyer",
        "correct_response": "arrowup",
        "trial_type": "image-keyboard-response",
        "trial_index": 189,
        "time_elapsed": 122810,
        "internal_node_id": "0.0-4.0-2.0-1.26",
        "participant_id": "lxjebdm2hg",
        "prestimulus_duration": 603,
        "correct": false,
        "type": "MullerLyer",
        "illusion_strength": 0,
        "illusion_difference": 0.04541935483870968,
        "block_number": 2,
        "trial_number": 27
    },
    {
        "rt": null,
        "stimulus": "<div style=\"font-size:60px;\">+</div>",
        "response": null,
        "screen": "fixation",
        "trial_type": "html-keyboard-response",
        "trial_index": 190,
        "time_elapsed": 123549,
        "internal_node_id": "0.0-4.0-2.0-0.27",
        "participant_id": "lxjebdm2hg",
        "trial_duration": 722
    },
    {
        "rt": 298,
        "stimulus": "stimuli/MullerLyer_str0_diff0.341548.png",
        "response": "arrowup",
        "screen": "Trial",
        "block": "MullerLyer",
        "correct_response": "arrowup",
        "trial_type": "image-keyboard-response",
        "trial_index": 191,
        "time_elapsed": 123849,
        "internal_node_id": "0.0-4.0-2.0-1.27",
        "participant_id": "lxjebdm2hg",
        "prestimulus_duration": 739,
        "correct": true,
        "type": "MullerLyer",
        "illusion_strength": 0,
        "illusion_difference": 0.3415483870967742,
        "block_number": 2,
        "trial_number": 28
    },
    {
        "rt": null,
        "stimulus": "<div style=\"font-size:60px;\">+</div>",
        "response": null,
        "screen": "fixation",
        "trial_type": "html-keyboard-response",
        "trial_index": 192,
        "time_elapsed": 124768,
        "internal_node_id": "0.0-4.0-2.0-0.28",
        "participant_id": "lxjebdm2hg",
        "trial_duration": 907
    },
    {
        "rt": 584,
        "stimulus": "stimuli/MullerLyer_str0_diff-0.415581.png",
        "response": "arrowdown",
        "screen": "Trial",
        "block": "MullerLyer",
        "correct_response": "arrowdown",
        "trial_type": "image-keyboard-response",
        "trial_index": 193,
        "time_elapsed": 125354,
        "internal_node_id": "0.0-4.0-2.0-1.28",
        "participant_id": "lxjebdm2hg",
        "prestimulus_duration": 919,
        "correct": true,
        "type": "MullerLyer",
        "illusion_strength": 0,
        "illusion_difference": -0.41558064516129034,
        "block_number": 2,
        "trial_number": 29
    },
    {
        "rt": null,
        "stimulus": "<div style=\"font-size:60px;\">+</div>",
        "response": null,
        "screen": "fixation",
        "trial_type": "html-keyboard-response",
        "trial_index": 194,
        "time_elapsed": 126324,
        "internal_node_id": "0.0-4.0-2.0-0.29",
        "participant_id": "lxjebdm2hg",
        "trial_duration": 955
    },
    {
        "rt": 372,
