[{"success":true,"trial_type":"fullscreen","trial_index":0,"time_elapsed":1845,"internal_node_id":"0.0-0.0","participant_id":"4ckeuxr7ku"},{"success":true,"timeout":false,"failed_images":[],"failed_audio":[],"failed_video":[],"trial_type":"preload","trial_index":1,"time_elapsed":2130,"internal_node_id":"0.0-1.0","participant_id":"4ckeuxr7ku"},{"rt":2063,"stimulus":"<p><b>The Illusion Game</b></p><p>In this game of speed and reflex, you will need to make <b>visual judgments</b> of different targets (for instance, which circle is the biggest, or which line is the longest), as <b>quickly</b> as possible.</p><p>It can be challenging at times, so you want to rely on your intuition and gut feeling to answer as <b>fast</b> as you can.</p><p>Don't worry, we will show you examples of each target before each block.</p><p>Remember, your goal is to be as <b>fast</b> as possible. Good luck!</p>","response":0,"screen":"general_instructions","trial_type":"html-button-response","trial_index":2,"time_elapsed":4195,"internal_node_id":"0.0-2.0","participant_id":"4ckeuxr7ku"},{"success":true,"timeout":false,"failed_images":[],"failed_audio":[],"failed_video":[],"trial_type":"preload","trial_index":3,"time_elapsed":4550,"internal_node_id":"0.0-3.0-0.0","participant_id":"4ckeuxr7ku"},{"rt":1296,"stimulus":"<p><b>Part 1</b></p><p>In this part, two red circles will appear side by side on the screen.</p><p>Your task is to select which <b>red circle is bigger</b> in size as fast as you can, without making errors.</p><p>Press <b>the LEFT or the RIGHT arrow</b> to indicate which is the bigger <b>red circle.</b></p><div style='float: center'><img src='utils/stimuli_demo/Delboeuf_Demo.png' height='300'></img><p><img src='utils/answer/answer_leftright_keyboard.PNG' height='150'></img></p><p class='small'>In this example, the correct answer is the <b>LEFT arrow</b>.</p></div><p>Are you ready? <b>Press ENTER to start</b></p>","response":"enter","trial_type":"html-keyboard-response","trial_index":4,"time_elapsed":5847,"internal_node_id":"0.0-3.0-1.0","participant_id":"4ckeuxr7ku"},{"rt":null,"stimulus":"<div style=\"font-size:60px;\">+</div>","response":null,"screen":"fixation","trial_type":"html-keyboard-response","trial_index":5,"time_elapsed":6954,"internal_node_id":"0.0-3.0-2.0-0.0","participant_id":"4ckeuxr7ku","trial_duration":600},{"rt":476,"stimulus":"stimuli/Delboeuf_str0_diff0.205923.png","response":"arrowleft","screen":"Trial","block":"Delboeuf","correct_response":"arrowleft","trial_type":"image-keyboard-response","trial_index":6,"time_elapsed":7438,"internal_node_id":"0.0-3.0-2.0-1.0","participant_id":"4ckeuxr7ku","prestimulus_duration":1107,"correct":true,"type":"Delboeuf","illusion_strength":0,"illusion_difference":0.20592307692307693,"block_number":1,"trial_number":1},{"rt":null,"stimulus":"<div style=\"font-size:60px;\">+</div>","response":null,"screen":"fixation","trial_type":"html-keyboard-response","trial_index":7,"time_elapsed":8245,"internal_node_id":"0.0-3.0-2.0-0.1","participant_id":"4ckeuxr7ku","trial_duration":803},{"rt":315,"stimulus":"stimuli/Delboeuf_str0_diff0.590154.png","response":"arrowleft","screen":"Trial","block":"Delboeuf","correct_response":"arrowleft","trial_type":"image-keyboard-response","trial_index":8,"time_elapsed":8563,"internal_node_id":"0.0-3.0-2.0-1.1","participant_id":"4ckeuxr7ku","prestimulus_duration":807,"correct":true,"type":"Delboeuf","illusion_strength":0,"illusion_difference":0.5901538461538461,"block_number":1,"trial_number":2},{"rt":null,"stimulus":"<div style=\"font-size:60px;\">+</div>","response":null,"screen":"fixation","trial_type":"html-keyboard-response","trial_index":9,"time_elapsed":9268,"internal_node_id":"0.0-3.0-2.0-0.2","participant_id":"4ckeuxr7ku","trial_duration":699},{"rt":366,"stimulus":"stimuli/Delboeuf_str0_diff-0.667.png","response":"arrowright","screen":"Trial","block":"Delboeuf","correct_response":"arrowright","trial_type":"image-keyboard-response","trial_index":10,"time_elapsed":9635,"internal_node_id":"0.0-3.0-2.0-1.2","participant_id":"4ckeuxr7ku","prestimulus_duration":705,"correct":true,"type":"Delboeuf","illusion_strength":0,"illusion_difference":-0.667,"block_number":1,"trial_number":3},{"rt":null,"stimulus":"<div style=\"font-size:60px;\">+</div>","response":null,"screen":"fixation","trial_type":"html-keyboard-response","trial_index":11,"time_elapsed":10372,"internal_node_id":"0.0-3.0-2.0-0.3","participant_id":"4ckeuxr7ku","trial_duration":727},{"rt":317,"stimulus":"stimuli/Delboeuf_str0_diff-0.205923.png","response":"arrowright","screen":"Trial","block":"Delboeuf","correct_response":"arrowright","trial_type":"image-keyboard-response","trial_index":12,"time_elapsed":10692,"internal_node_id":"0.0-3.0-2.0-1.3","participant_id":"4ckeuxr7ku","prestimulus_duration":737,"correct":true,"type":"Delboeuf","illusion_strength":0,"illusion_difference":-0.20592307692307693,"block_number":1,"trial_number":4},{"rt":null,"stimulus":"<div style=\"font-size:60px;\">+</div>","response":null,"screen":"fixation","trial_type":"html-keyboard-response","trial_index":13,"time_elapsed":11677,"internal_node_id":"0.0-3.0-2.0-0.4","participant_id":"4ckeuxr7ku","trial_duration":977},{"rt":483,"stimulus":"stimuli/Delboeuf_str0_diff-0.436462.png","response":"arrowright","screen":"Trial","block":"Delboeuf","correct_response":"arrowright","trial_type":"image-keyboard-response","trial_index":14,"time_elapsed":12161,"internal_node_id":"0.0-3.0-2.0-1.4","participant_id":"4ckeuxr7ku","prestimulus_duration":985,"correct":true,"type":"Delboeuf","illusion_strength":0,"illusion_difference":-0.43646153846153846,"block_number":1,"trial_number":5},{"rt":null,"stimulus":"<div style=\"font-size:60px;\">+</div>","response":null,"screen":"fixation","trial_type":"html-keyboard-response","trial_index":15,"time_elapsed":13158,"internal_node_id":"0.0-3.0-2.0-0.5","participant_id":"4ckeuxr7ku","trial_duration":993},{"rt":366,"stimulus":"stimuli/Delboeuf_str0_diff0.769462.png","response":"arrowleft","screen":"Trial","block":"Delboeuf","correct_response":"arrowleft","trial_type":"image-keyboard-response","trial_index":16,"time_elapsed":13526,"internal_node_id":"0.0-3.0-2.0-1.5","participant_id":"4ckeuxr7ku","prestimulus_duration":997,"correct":true,"type":"Delboeuf","illusion_strength":0,"illusion_difference":0.7694615384615385,"block_number":1,"trial_number":6},{"rt":null,"stimulus":"<div style=\"font-size:60px;\">+</div>","response":null,"screen":"fixation","trial_type":"html-keyboard-response","trial_index":17,"time_elapsed":14270,"internal_node_id":"0.0-3.0-2.0-0.6","participant_id":"4ckeuxr7ku","trial_duration":737},{"rt":355,"stimulus":"stimuli/Delboeuf_str0_diff0.129077.png","response":"arrowleft","screen":"Trial","block":"Delboeuf","correct_response":"arrowleft","trial_type":"image-keyboard-response","trial_index":18,"time_elapsed":14627,"internal_node_id":"0.0-3.0-2.0-1.6","participant_id":"4ckeuxr7ku","prestimulus_duration":744,"correct":true,"type":"Delboeuf","illusion_strength":0,"illusion_difference":0.1290769230769231,"block_number":1,"trial_number":7},{"rt":null,"stimulus":"<div style=\"font-size:60px;\">+</div>","response":null,"screen":"fixation","trial_type":"html-keyboard-response","trial_index":19,"time_elapsed":15452,"internal_node_id":"0.0-3.0-2.0-0.7","participant_id":"4ckeuxr7ku","trial_duration":781},{"rt":242,"stimulus":"stimuli/Delboeuf_str0_diff-0.897538.png","response":"arrowright","screen":"Trial","block":"Delboeuf","correct_response":"arrowright","trial_type":"image-keyboard-response","trial_index":20,"time_elapsed":15697,"internal_node_id":"0.0-3.0-2.0-1.7","participant_id":"4ckeuxr7ku","prestimulus_duration":825,"correct":true,"type":"Delboeuf","illusion_strength":0,"illusion_difference":-0.8975384615384616,"block_number":1,"trial_number":8},{"rt":null,"stimulus":"<div style=\"font-size:60px;\">+</div>","response":null,"screen":"fixation","trial_type":"html-keyboard-response","trial_index":21,"time_elapsed":16597,"internal_node_id":"0.0-3.0-2.0-0.8","participant_id":"4ckeuxr7ku","trial_duration":897},{"rt":269,"stimulus":"stimuli/Delboeuf_str0_diff-0.846308.png","response":"arrowright","screen":"Trial","block":"Delboeuf","correct_response":"arrowright","trial_type":"image-keyboard-response","trial_index":22,"time_elapsed":16868,"internal_node_id":"0.0-3.0-2.0-1.8","participant_id":"4ckeuxr7ku","prestimulus_duration":900,"correct":true,"type":"Delboeuf","illusion_strength":0,"illusion_difference":-0.8463076923076923,"block_number":1,"trial_number":9},{"rt":null,"stimulus":"<div style=\"font-size:60px;\">+</div>","response":null,"screen":"fixation","trial_type":"html-keyboard-response","trial_index":23,"time_elapsed":17871,"internal_node_id":"0.0-3.0-2.0-0.9","participant_id":"4ckeuxr7ku","trial_duration":996},{"rt":421,"stimulus":"stimuli/Delboeuf_str0_diff0.436462.png","response":"arrowleft","screen":"Trial","block":"Delboeuf","correct_response":"arrowleft","trial_type":"image-keyboard-response","trial_index":24,"time_elapsed":18295,"internal_node_id":"0.0-3.0-2.0-1.9","participant_id":"4ckeuxr7ku","prestimulus_duration":1003,"correct":true,"type":"Delboeuf","illusion_strength":0,"illusion_difference":0.43646153846153846,"block_number":1,"trial_number":10},{"rt":null,"stimulus":"<div style=\"font-size:60px;\">+</div>","response":null,"screen":"fixation","trial_type":"html-keyboard-response","trial_index":25,"time_elapsed":19110,"internal_node_id":"0.0-3.0-2.0-0.10","participant_id":"4ckeuxr7ku","trial_duration":809},{"rt":341,"stimulus":"stimuli/Delboeuf_str0_diff-0.385231.png","response":"arrowright","screen":"Trial","block":"Delboeuf","correct_response":"arrowright","trial_type":"image-keyboard-response","trial_index":26,"time_elapsed":19454,"internal_node_id":"0.0-3.0-2.0-1.10","participant_id":"4ckeuxr7ku","prestimulus_duration":815,"correct":true,"type":"Delboeuf","illusion_strength":0,"illusion_difference":-0.38523076923076927,"block_number":1,"trial_number":11},{"rt":null,"stimulus":"<div style=\"font-size:60px;\">+</div>","response":null,"screen":"fixation","trial_type":"html-keyboard-response","trial_index":27,"time_elapsed":19987,"internal_node_id":"0.0-3.0-2.0-0.11","participant_id":"4ckeuxr7ku","trial_duration":521},{"rt":417,"stimulus":"stimuli/Delboeuf_str0_diff-0.692615.png","response":"arrowright","screen":"Trial","block":"Delboeuf","correct_response":"arrowright","trial_type":"image-keyboard-response","trial_index":28,"time_elapsed":20406,"internal_node_id":"0.0-3.0-2.0-1.11","participant_id":"4ckeuxr7ku","prestimulus_duration":533,"correct":true,"type":"Delboeuf","illusion_strength":0,"illusion_difference":-0.6926153846153846,"block_number":1,"trial_number":12},{"rt":null,"stimulus":"<div style=\"font-size:60px;\">+</div>","response":null,"screen":"fixation","trial_type":"html-keyboard-response","trial_index":29,"time_elapsed":21218,"internal_node_id":"0.0-3.0-2.0-0.12","participant_id":"4ckeuxr7ku","trial_duration":800},{"rt":322,"stimulus":"stimuli/Delboeuf_str0_diff0.257154.png","response":"arrowleft","screen":"Trial","block":"Delboeuf","correct_response":"arrowleft","trial_type":"image-keyboard-response","trial_index":30,"time_elapsed":21542,"internal_node_id":"0.0-3.0-2.0-1.12","participant_id":"4ckeuxr7ku","prestimulus_duration":812,"correct":true,"type":"Delboeuf","illusion_strength":0,"illusion_difference":0.2571538461538462,"block_number":1,"trial_number":13},{"rt":null,"stimulus":"<div style=\"font-size:60px;\">+</div>","response":null,"screen":"fixation","trial_type":"html-keyboard-response","trial_index":31,"time_elapsed":22392,"internal_node_id":"0.0-3.0-2.0-0.13","participant_id":"4ckeuxr7ku","trial_duration":834},{"rt":301,"stimulus":"stimuli/Delboeuf_str0_diff-0.180308.png","response":"arrowright","screen":"Trial","block":"Delboeuf","correct_response":"arrowright","trial_type":"image-keyboard-response","trial_index":32,"time_elapsed":22696,"internal_node_id":"0.0-3.0-2.0-1.13","participant_id":"4ckeuxr7ku","prestimulus_duration":850,"correct":true,"type":"Delboeuf","illusion_strength":0,"illusion_difference":-0.1803076923076923,"block_number":1,"trial_number":14},{"rt":null,"stimulus":"<div style=\"font-size:60px;\">+</div>","response":null,"screen":"fixation","trial_type":"html-keyboard-response","trial_index":33,"time_elapsed":23667,"internal_node_id":"0.0-3.0-2.0-0.14","participant_id":"4ckeuxr7ku","trial_duration":959},{"rt":240,"stimulus":"stimuli/Delboeuf_str0_diff1.0.png","response":"arrowleft","screen":"Trial","block":"Delboeuf","correct_response":"arrowleft","trial_type":"image-keyboard-response","trial_index":34,"time_elapsed":23909,"internal_node_id":"0.0-3.0-2.0-1.14","participant_id":"4ckeuxr7ku","prestimulus_duration":971,"correct":true,"type":"Delboeuf","illusion_strength":0,"illusion_difference":1,"block_number":1,"trial_number":15},{"rt":null,"stimulus":"<div style=\"font-size:60px;\">+</div>","response":null,"screen":"fixation","trial_type":"html-keyboard-response","trial_index":35,"time_elapsed":24426,"internal_node_id":"0.0-3.0-2.0-0.15","participant_id":"4ckeuxr7ku","trial_duration":513},{"rt":276,"stimulus":"stimuli/Delboeuf_str0_diff0.743846.png","response":"arrowleft","screen":"Trial","block":"Delboeuf","correct_response":"arrowleft","trial_type":"image-keyboard-response","trial_index":36,"time_elapsed":24704,"internal_node_id":"0.0-3.0-2.0-1.15","participant_id":"4ckeuxr7ku","prestimulus_duration":517,"correct":true,"type":"Delboeuf","illusion_strength":0,"illusion_difference":0.7438461538461538,"block_number":1,"trial_number":16},{"rt":null,"stimulus":"<div style=\"font-size:60px;\">+</div>","response":null,"screen":"fixation","trial_type":"html-keyboard-response","trial_index":37,"time_elapsed":25323,"internal_node_id":"0.0-3.0-2.0-0.16","participant_id":"4ckeuxr7ku","trial_duration":603},{"rt":282,"stimulus":"stimuli/Delboeuf_str0_diff0.718231.png","response":"arrowleft","screen":"Trial","block":"Delboeuf","correct_response":"arrowleft","trial_type":"image-keyboard-response","trial_index":38,"time_elapsed":25607,"internal_node_id":"0.0-3.0-2.0-1.16","participant_id":"4ckeuxr7ku","prestimulus_duration":619,"correct":true,"type":"Delboeuf","illusion_strength":0,"illusion_difference":0.7182307692307692,"block_number":1,"trial_number":17},{"rt":null,"stimulus":"<div style=\"font-size:60px;\">+</div>","response":null,"screen":"fixation","trial_type":"html-keyboard-response","trial_index":39,"time_elapsed":26526,"internal_node_id":"0.0-3.0-2.0-0.17","participant_id":"4ckeuxr7ku","trial_duration":915},{"rt":257,"stimulus":"stimuli/Delboeuf_str0_diff0.948769.png","response":"arrowleft","screen":"Trial","block":"Delboeuf","correct_response":"arrowleft","trial_type":"image-keyboard-response","trial_index":40,"time_elapsed":26786,"internal_node_id":"0.0-3.0-2.0-1.17","participant_id":"4ckeuxr7ku","prestimulus_duration":919,"correct":true,"type":"Delboeuf","illusion_strength":0,"illusion_difference":0.9487692307692308,"block_number":1,"trial_number":18},{"rt":null,"stimulus":"<div style=\"font-size:60px;\">+</div>","response":null,"screen":"fixation","trial_type":"html-keyboard-response","trial_index":41,"time_elapsed":27780,"internal_node_id":"0.0-3.0-2.0-0.18","participant_id":"4ckeuxr7ku","trial_duration":983},{"rt":37,"stimulus":"stimuli/Delboeuf_str0_diff0.513308.png","response":"arrowleft","screen":"Trial","block":"Delboeuf","correct_response":"arrowleft","trial_type":"image-keyboard-response","trial_index":42,"time_elapsed":27818,"internal_node_id":"0.0-3.0-2.0-1.18","participant_id":"4ckeuxr7ku","prestimulus_duration":994,"correct":true,"type":"Delboeuf","illusion_strength":0,"illusion_difference":0.5133076923076924,"block_number":1,"trial_number":19},{"rt":null,"stimulus":"<div style=\"font-size:60px;\">+</div>","response":null,"screen":"fixation","trial_type":"html-keyboard-response","trial_index":43,"time_elapsed":28632,"internal_node_id":"0.0-3.0-2.0-0.19","participant_id":"4ckeuxr7ku","trial_duration":797},{"rt":298,"stimulus":"stimuli/Delboeuf_str0_diff0.180308.png","response":"arrowleft","screen":"Trial","block":"Delboeuf","correct_response":"arrowleft","trial_type":"image-keyboard-response","trial_index":44,"time_elapsed":28931,"internal_node_id":"0.0-3.0-2.0-1.19","participant_id":"4ckeuxr7ku","prestimulus_duration":814,"correct":true,"type":"Delboeuf","illusion_strength":0,"illusion_difference":0.1803076923076923,"block_number":1,"trial_number":20},{"rt":null,"stimulus":"<div style=\"font-size:60px;\">+</div>","response":null,"screen":"fixation","trial_type":"html-keyboard-response","trial_index":45,"time_elapsed":29677,"internal_node_id":"0.0-3.0-2.0-0.20","participant_id":"4ckeuxr7ku","trial_duration":733},{"rt":267,"stimulus":"stimuli/Delboeuf_str0_diff0.795077.png","response":"arrowright","screen":"Trial","block":"Delboeuf","correct_response":"arrowleft","trial_type":"image-keyboard-response","trial_index":46,"time_elapsed":29945,"internal_node_id":"0.0-3.0-2.0-1.20","participant_id":"4ckeuxr7ku","prestimulus_duration":746,"correct":false,"type":"Delboeuf","illusion_strength":0,"illusion_difference":0.7950769230769231,"block_number":1,"trial_number":21},{"rt":null,"stimulus":"<div style=\"font-size:60px;\">+</div>","response":null,"screen":"fixation","trial_type":"html-keyboard-response","trial_index":47,"time_elapsed":30470,"internal_node_id":"0.0-3.0-2.0-0.21","participant_id":"4ckeuxr7ku","trial_duration":521},{"rt":396,"stimulus":"stimuli/Delboeuf_str0_diff-0.410846.png","response":"arrowright","screen":"Trial","block":"Delboeuf","correct_response":"arrowright","trial_type":"image-keyboard-response","trial_index":48,"time_elapsed":30869,"internal_node_id":"0.0-3.0-2.0-1.21","participant_id":"4ckeuxr7ku","prestimulus_duration":525,"correct":true,"type":"Delboeuf","illusion_strength":0,"illusion_difference":-0.41084615384615386,"block_number":1,"trial_number":22},{"rt":null,"stimulus":"<div style=\"font-size:60px;\">+</div>","response":null,"screen":"fixation","trial_type":"html-keyboard-response","trial_index":49,"time_elapsed":31550,"internal_node_id":"0.0-3.0-2.0-0.22","participant_id":"4ckeuxr7ku","trial_duration":668},{"rt":336,"stimulus":"stimuli/Delboeuf_str0_diff0.001.png","response":"arrowright","screen":"Trial","block":"Delboeuf","correct_response":"arrowleft","trial_type":"image-keyboard-response","trial_index":50,"time_elapsed":31888,"internal_node_id":"0.0-3.0-2.0-1.22","participant_id":"4ckeuxr7ku","prestimulus_duration":681,"correct":false,"type":"Delboeuf","illusion_strength":0,"illusion_difference":0.001,"block_number":1,"trial_number":23},{"rt":null,"stimulus":"<div style=\"font-size:60px;\">+</div>","response":null,"screen":"fixation","trial_type":"html-keyboard-response","trial_index":51,"time_elapsed":32402,"internal_node_id":"0.0-3.0-2.0-0.23","participant_id":"4ckeuxr7ku","trial_duration":510},{"rt":363,"stimulus":"stimuli/Delboeuf_str0_diff-0.795077.png","response":"arrowright","screen":"Trial","block":"Delboeuf","correct_response":"arrowright","trial_type":"image-keyboard-response","trial_index":52,"time_elapsed":32767,"internal_node_id":"0.0-3.0-2.0-1.23","participant_id":"4ckeuxr7ku","prestimulus_duration":514,"correct":true,"type":"Delboeuf","illusion_strength":0,"illusion_difference":-0.7950769230769231,"block_number":1,"trial_number":24},{"rt":null,"stimulus":"<div style=\"font-size:60px;\">+</div>","response":null,"screen":"fixation","trial_type":"html-keyboard-response","trial_index":53,"time_elapsed":33344,"internal_node_id":"0.0-3.0-2.0-0.24","participant_id":"4ckeuxr7ku","trial_duration":575},{"rt":346,"stimulus":"stimuli/Delboeuf_str0_diff0.871923.png","response":"arrowleft","screen":"Trial","block":"Delboeuf","correct_response":"arrowleft","trial_type":"image-keyboard-response","trial_index":54,"time_elapsed":33692,"internal_node_id":"0.0-3.0-2.0-1.24","participant_id":"4ckeuxr7ku","prestimulus_duration":577,"correct":true,"type":"Delboeuf","illusion_strength":0,"illusion_difference":0.8719230769230769,"block_number":1,"trial_number":25},{"rt":null,"stimulus":"<div style=\"font-size:60px;\">+</div>","response":null,"screen":"fixation","trial_type":"html-keyboard-response","trial_index":55,"time_elapsed":34548,"internal_node_id":"0.0-3.0-2.0-0.25","participant_id":"4ckeuxr7ku","trial_duration":845},{"rt":345,"stimulus":"stimuli/Delboeuf_str0_diff0.487692.png","response":"arrowleft","screen":"Trial","block":"Delboeuf","correct_response":"arrowleft","trial_type":"image-keyboard-response","trial_index":56,"time_elapsed":34896,"internal_node_id":"0.0-3.0-2.0-1.25","participant_id":"4ckeuxr7ku","prestimulus_duration":856,"correct":true,"type":"Delboeuf","illusion_strength":0,"illusion_difference":0.4876923076923077,"block_number":1,"trial_number":26},{"rt":null,"stimulus":"<div style=\"font-size:60px;\">+</div>","response":null,"screen":"fixation","trial_type":"html-keyboard-response","trial_index":57,"time_elapsed":35839,"internal_node_id":"0.0-3.0-2.0-0.26","participant_id":"4ckeuxr7ku","trial_duration":928},{"rt":348,"stimulus":"stimuli/Delboeuf_str0_diff-0.308385.png","response":"arrowleft","screen":"Trial","block":"Delboeuf","correct_response":"arrowright","trial_type":"image-keyboard-response","trial_index":58,"time_elapsed":36190,"internal_node_id":"0.0-3.0-2.0-1.26","participant_id":"4ckeuxr7ku","prestimulus_duration":943,"correct":false,"type":"Delboeuf","illusion_strength":0,"illusion_difference":-0.30838461538461537,"block_number":1,"trial_number":27},{"rt":null,"stimulus":"<div style=\"font-size:60px;\">+</div>","response":null,"screen":"fixation","trial_type":"html-keyboard-response","trial_index":59,"time_elapsed":36719,"internal_node_id":"0.0-3.0-2.0-0.27","participant_id":"4ckeuxr7ku","trial_duration":525},{"rt":327,"stimulus":"stimuli/Delboeuf_str0_diff-0.641385.png","response":"arrowright","screen":"Trial","block":"Delboeuf","correct_response":"arrowright","trial_type":"image-keyboard-response","trial_index":60,"time_elapsed":37048,"internal_node_id":"0.0-3.0-2.0-1.27","participant_id":"4ckeuxr7ku","prestimulus_duration":529,"correct":true,"type":"Delboeuf","illusion_strength":0,"illusion_difference":-0.6413846153846154,"block_number":1,"trial_number":28},{"rt":null,"stimulus":"<div style=\"font-size:60px;\">+</div>","response":null,"screen":"fixation","trial_type":"html-keyboard-response","trial_index":61,"time_elapsed":37940,"internal_node_id":"0.0-3.0-2.0-0.28","participant_id":"4ckeuxr7ku","trial_duration":887},{"rt":532,"stimulus":"stimuli/Delboeuf_str0_diff0.282769.png","response":"arrowright","screen":"Trial","block":"Delboeuf","correct_response":"arrowleft","trial_type":"image-keyboard-response","trial_index":62,"time_elapsed":38475,"internal_node_id":"0.0-3.0-2.0-1.28","participant_id":"4ckeuxr7ku","prestimulus_duration":892,"correct":false,"type":"Delboeuf","illusion_strength":0,"illusion_difference":0.2827692307692308,"block_number":1,"trial_number":29},{"rt":null,"stimulus":"<div style=\"font-size:60px;\">+</div>","response":null,"screen":"fixation","trial_type":"html-keyboard-response","trial_index":63,"time_elapsed":39463,"internal_node_id":"0.0-3.0-2.0-0.29","participant_id":"4ckeuxr7ku","trial_duration":978},{"rt":515,"stimulus":"stimuli/Delboeuf_str0_diff-0.974385.png","response":"arrowright","screen":"Trial","block":"Delboeuf","correct_response":"arrowright","trial_type":"image-keyboard-response","trial_index":64,"time_elapsed":39979,"internal_node_id":"0.0-3.0-2.0-1.29","participant_id":"4ckeuxr7ku","prestimulus_duration":988,"correct":true,"type":"Delboeuf","illusion_strength":0,"illusion_difference":-0.9743846153846154,"block_number":1,"trial_number":30},{"rt":null,"stimulus":"<div style=\"font-size:60px;\">+</div>","response":null,"screen":"fixation","trial_type":"html-keyboard-response","trial_index":65,"time_elapsed":40908,"internal_node_id":"0.0-3.0-2.0-0.30","participant_id":"4ckeuxr7ku","trial_duration":917},{"rt":369,"stimulus":"stimuli/Delboeuf_str0_diff-0.513308.png","response":"arrowright","screen":"Trial","block":"Delboeuf","correct_response":"arrowright","trial_type":"image-keyboard-response","trial_index":66,"time_elapsed":41280,"internal_node_id":"0.0-3.0-2.0-1.30","participant_id":"4ckeuxr7ku","prestimulus_duration":929,"correct":true,"type":"Delboeuf","illusion_strength":0,"illusion_difference":-0.5133076923076924,"block_number":1,"trial_number":31},{"rt":null,"stimulus":"<div style=\"font-size:60px;\">+</div>","response":null,"screen":"fixation","trial_type":"html-keyboard-response","trial_index":67,"time_elapsed":42092,"internal_node_id":"0.0-3.0-2.0-0.31","participant_id":"4ckeuxr7ku","trial_duration":801},{"rt":334,"stimulus":"stimuli/Delboeuf_str0_diff0.820692.png","response":"arrowleft","screen":"Trial","block":"Delboeuf","correct_response":"arrowleft","trial_type":"image-keyboard-response","trial_index":68,"time_elapsed":42427,"internal_node_id":"0.0-3.0-2.0-1.31","participant_id":"4ckeuxr7ku","prestimulus_duration":812,"correct":true,"type":"Delboeuf","illusion_strength":0,"illusion_difference":0.8206923076923077,"block_number":1,"trial_number":32},{"rt":null,"stimulus":"<div style=\"font-size:60px;\">+</div>","response":null,"screen":"fixation","trial_type":"html-keyboard-response","trial_index":69,"time_elapsed":43094,"internal_node_id":"0.0-3.0-2.0-0.32","participant_id":"4ckeuxr7ku","trial_duration":663},{"rt":478,"stimulus":"stimuli/Delboeuf_str0_diff0.385231.png","response":"arrowleft","screen":"Trial","block":"Delboeuf","correct_response":"arrowleft","trial_type":"image-keyboard-response","trial_index":70,"time_elapsed":43574,"internal_node_id":"0.0-3.0-2.0-1.32","participant_id":"4ckeuxr7ku","prestimulus_duration":667,"correct":true,"type":"Delboeuf","illusion_strength":0,"illusion_difference":0.38523076923076927,"block_number":1,"trial_number":33},{"rt":null,"stimulus":"<div style=\"font-size:60px;\">+</div>","response":null,"screen":"fixation","trial_type":"html-keyboard-response","trial_index":71,"time_elapsed":44243,"internal_node_id":"0.0-3.0-2.0-0.33","participant_id":"4ckeuxr7ku","trial_duration":666},{"rt":364,"stimulus":"stimuli/Delboeuf_str0_diff-0.718231.png","response":"arrowright","screen":"Trial","block":"Delboeuf","correct_response":"arrowright","trial_type":"image-keyboard-response","trial_index":72,"time_elapsed":44609,"internal_node_id":"0.0-3.0-2.0-1.33","participant_id":"4ckeuxr7ku","prestimulus_duration":669,"correct":true,"type":"Delboeuf","illusion_strength":0,"illusion_difference":-0.7182307692307692,"block_number":1,"trial_number":34},{"rt":null,"stimulus":"<div style=\"font-size:60px;\">+</div>","response":null,"screen":"fixation","trial_type":"html-keyboard-response","trial_index":73,"time_elapsed":45505,"internal_node_id":"0.0-3.0-2.0-0.34","participant_id":"4ckeuxr7ku","trial_duration":893},{"rt":376,"stimulus":"stimuli/Delboeuf_str0_diff-0.334.png","response":"arrowright","screen":"Trial","block":"Delboeuf","correct_response":"arrowright","trial_type":"image-keyboard-response","trial_index":74,"time_elapsed":45883,"internal_node_id":"0.0-3.0-2.0-1.34","participant_id":"4ckeuxr7ku","prestimulus_duration":896,"correct":true,"type":"Delboeuf","illusion_strength":0,"illusion_difference":-0.334,"block_number":1,"trial_number":35},{"rt":null,"stimulus":"<div style=\"font-size:60px;\">+</div>","response":null,"screen":"fixation","trial_type":"html-keyboard-response","trial_index":75,"time_elapsed":46675,"internal_node_id":"0.0-3.0-2.0-0.35","participant_id":"4ckeuxr7ku","trial_duration":785},{"rt":310,"stimulus":"stimuli/Delboeuf_str0_diff-0.615769.png","response":"arrowleft","screen":"Trial","block":"Delboeuf","correct_response":"arrowright","trial_type":"image-keyboard-response","trial_index":76,"time_elapsed":46987,"internal_node_id":"0.0-3.0-2.0-1.35","participant_id":"4ckeuxr7ku","prestimulus_duration":792,"correct":false,"type":"Delboeuf","illusion_strength":0,"illusion_difference":-0.6157692307692307,"block_number":1,"trial_number":36},{"rt":null,"stimulus":"<div style=\"font-size:60px;\">+</div>","response":null,"screen":"fixation","trial_type":"html-keyboard-response","trial_index":77,"time_elapsed":47766,"internal_node_id":"0.0-3.0-2.0-0.36","participant_id":"4ckeuxr7ku","trial_duration":766},{"rt":332,"stimulus":"stimuli/Delboeuf_str0_diff-0.103462.png","response":"arrowright","screen":"Trial","block":"Delboeuf","correct_response":"arrowright","trial_type":"image-keyboard-response","trial_index":78,"time_elapsed":48100,"internal_node_id":"0.0-3.0-2.0-1.36","participant_id":"4ckeuxr7ku","prestimulus_duration":779,"correct":true,"type":"Delboeuf","illusion_strength":0,"illusion_difference":-0.10346153846153847,"block_number":1,"trial_number":37},{"rt":null,"stimulus":"<div style=\"font-size:60px;\">+</div>","response":null,"screen":"fixation","trial_type":"html-keyboard-response","trial_index":79,"time_elapsed":48953,"internal_node_id":"0.0-3.0-2.0-0.37","participant_id":"4ckeuxr7ku","trial_duration":849},{"rt":405,"stimulus":"stimuli/Delboeuf_str0_diff0.334.png","response":"arrowleft","screen":"Trial","block":"Delboeuf","correct_response":"arrowleft","trial_type":"image-keyboard-response","trial_index":80,"time_elapsed":49359,"internal_node_id":"0.0-3.0-2.0-1.37","participant_id":"4ckeuxr7ku","prestimulus_duration":853,"correct":true,"type":"Delboeuf","illusion_strength":0,"illusion_difference":0.334,"block_number":1,"trial_number":38},{"rt":null,"stimulus":"<div style=\"font-size:60px;\">+</div>","response":null,"screen":"fixation","trial_type":"html-keyboard-response","trial_index":81,"time_elapsed":50000,"internal_node_id":"0.0-3.0-2.0-0.38","participant_id":"4ckeuxr7ku","trial_duration":631},{"rt":352,"stimulus":"stimuli/Delboeuf_str0_diff-0.871923.png","response":"arrowright","screen":"Trial","block":"Delboeuf","correct_response":"arrowright","trial_type":"image-keyboard-response","trial_index":82,"time_elapsed":50353,"internal_node_id":"0.0-3.0-2.0-1.38","participant_id":"4ckeuxr7ku","prestimulus_duration":641,"correct":true,"type":"Delboeuf","illusion_strength":0,"illusion_difference":-0.8719230769230769,"block_number":1,"trial_number":39},{"rt":null,"stimulus":"<div style=\"font-size:60px;\">+</div>","response":null,"screen":"fixation","trial_type":"html-keyboard-response","trial_index":83,"time_elapsed":51349,"internal_node_id":"0.0-3.0-2.0-0.39","participant_id":"4ckeuxr7ku","trial_duration":988},{"rt":365,"stimulus":"stimuli/Delboeuf_str0_diff-0.743846.png","response":"arrowright","screen":"Trial","block":"Delboeuf","correct_response":"arrowright","trial_type":"image-keyboard-response","trial_index":84,"time_elapsed":51716,"internal_node_id":"0.0-3.0-2.0-1.39","participant_id":"4ckeuxr7ku","prestimulus_duration":996,"correct":true,"type":"Delboeuf","illusion_strength":0,"illusion_difference":-0.7438461538461538,"block_number":1,"trial_number":40},{"rt":null,"stimulus":"<div style=\"font-size:60px;\">+</div>","response":null,"screen":"fixation","trial_type":"html-keyboard-response","trial_index":85,"time_elapsed":52286,"internal_node_id":"0.0-3.0-2.0-0.40","participant_id":"4ckeuxr7ku","trial_duration":562},{"rt":326,"stimulus":"stimuli/Delboeuf_str0_diff-0.359615.png","response":"arrowright","screen":"Trial","block":"Delboeuf","correct_response":"arrowright","trial_type":"image-keyboard-response","trial_index":86,"time_elapsed":52614,"internal_node_id":"0.0-3.0-2.0-1.40","participant_id":"4ckeuxr7ku","prestimulus_duration":570,"correct":true,"type":"Delboeuf","illusion_strength":0,"illusion_difference":-0.3596153846153846,"block_number":1,"trial_number":41},{"rt":null,"stimulus":"<div style=\"font-size:60px;\">+</div>","response":null,"screen":"fixation","trial_type":"html-keyboard-response","trial_index":87,"time_elapsed":53333,"internal_node_id":"0.0-3.0-2.0-0.41","participant_id":"4ckeuxr7ku","trial_duration":706},{"rt":404,"stimulus":"stimuli/Delboeuf_str0_diff-0.077846.png","response":"arrowright","screen":"Trial","block":"Delboeuf","correct_response":"arrowright","trial_type":"image-keyboard-response","trial_index":88,"time_elapsed":53739,"internal_node_id":"0.0-3.0-2.0-1.41","participant_id":"4ckeuxr7ku","prestimulus_duration":719,"correct":true,"type":"Delboeuf","illusion_strength":0,"illusion_difference":-0.07784615384615384,"block_number":1,"trial_number":42},{"rt":null,"stimulus":"<div style=\"font-size:60px;\">+</div>","response":null,"screen":"fixation","trial_type":"html-keyboard-response","trial_index":89,"time_elapsed":54386,"internal_node_id":"0.0-3.0-2.0-0.42","participant_id":"4ckeuxr7ku","trial_duration":634},{"rt":292,"stimulus":"stimuli/Delboeuf_str0_diff-0.154692.png","response":"arrowright","screen":"Trial","block":"Delboeuf","correct_response":"arrowright","trial_type":"image-keyboard-response","trial_index":90,"time_elapsed":54678,"internal_node_id":"0.0-3.0-2.0-1.42","participant_id":"4ckeuxr7ku","prestimulus_duration":647,"correct":true,"type":"Delboeuf","illusion_strength":0,"illusion_difference":-0.15469230769230768,"block_number":1,"trial_number":43},{"rt":null,"stimulus":"<div style=\"font-size:60px;\">+</div>","response":null,"screen":"fixation","trial_type":"html-keyboard-response","trial_index":91,"time_elapsed":55453,"internal_node_id":"0.0-3.0-2.0-0.43","participant_id":"4ckeuxr7ku","trial_duration":767},{"rt":287,"stimulus":"stimuli/Delboeuf_str0_diff-0.820692.png","response":"arrowright","screen":"Trial","block":"Delboeuf","correct_response":"arrowright","trial_type":"image-keyboard-response","trial_index":92,"time_elapsed":55741,"internal_node_id":"0.0-3.0-2.0-1.43","participant_id":"4ckeuxr7ku","prestimulus_duration":775,"correct":true,"type":"Delboeuf","illusion_strength":0,"illusion_difference":-0.8206923076923077,"block_number":1,"trial_number":44},{"rt":null,"stimulus":"<div style=\"font-size:60px;\">+</div>","response":null,"screen":"fixation","trial_type":"html-keyboard-response","trial_index":93,"time_elapsed":56377,"internal_node_id":"0.0-3.0-2.0-0.44","participant_id":"4ckeuxr7ku","trial_duration":633},{"rt":292,"stimulus":"stimuli/Delboeuf_str0_diff0.846308.png","response":"arrowright","screen":"Trial","block":"Delboeuf","correct_response":"arrowleft","trial_type":"image-keyboard-response","trial_index":94,"time_elapsed":56670,"internal_node_id":"0.0-3.0-2.0-1.44","participant_id":"4ckeuxr7ku","prestimulus_duration":636,"correct":false,"type":"Delboeuf","illusion_strength":0,"illusion_difference":0.8463076923076923,"block_number":1,"trial_number":45},{"rt":null,"stimulus":"<div style=\"font-size:60px;\">+</div>","response":null,"screen":"fixation","trial_type":"html-keyboard-response","trial_index":95,"time_elapsed":57435,"internal_node_id":"0.0-3.0-2.0-0.45","participant_id":"4ckeuxr7ku","trial_duration":761},{"rt":352,"stimulus":"stimuli/Delboeuf_str0_diff0.692615.png","response":"arrowleft","screen":"Trial","block":"Delboeuf","correct_response":"arrowleft","trial_type":"image-keyboard-response","trial_index":96,"time_elapsed":57789,"internal_node_id":"0.0-3.0-2.0-1.45","participant_id":"4ckeuxr7ku","prestimulus_duration":765,"correct":true,"type":"Delboeuf","illusion_strength":0,"illusion_difference":0.6926153846153846,"block_number":1,"trial_number":46},{"rt":null,"stimulus":"<div style=\"font-size:60px;\">+</div>","response":null,"screen":"fixation","trial_type":"html-keyboard-response","trial_index":97,"time_elapsed":58477,"internal_node_id":"0.0-3.0-2.0-0.46","participant_id":"4ckeuxr7ku","trial_duration":683},{"rt":338,"stimulus":"stimuli/Delboeuf_str0_diff0.615769.png","response":"arrowleft","screen":"Trial","block":"Delboeuf","correct_response":"arrowleft","trial_type":"image-keyboard-response","trial_index":98,"time_elapsed":58817,"internal_node_id":"0.0-3.0-2.0-1.46","participant_id":"4ckeuxr7ku","prestimulus_duration":688,"correct":true,"type":"Delboeuf","illusion_strength":0,"illusion_difference":0.6157692307692307,"block_number":1,"trial_number":47},{"rt":null,"stimulus":"<div style=\"font-size:60px;\">+</div>","response":null,"screen":"fixation","trial_type":"html-keyboard-response","trial_index":99,"time_elapsed":59661,"internal_node_id":"0.0-3.0-2.0-0.47","participant_id":"4ckeuxr7ku","trial_duration":841},{"rt":369,"stimulus":"stimuli/Delboeuf_str0_diff-0.564538.png","response":"arrowright","screen":"Trial","block":"Delboeuf","correct_response":"arrowright","trial_type":"image-keyboard-response","trial_index":100,"time_elapsed":60032,"internal_node_id":"0.0-3.0-2.0-1.47","participant_id":"4ckeuxr7ku","prestimulus_duration":844,"correct":true,"type":"Delboeuf","illusion_strength":0,"illusion_difference":-0.5645384615384615,"block_number":1,"trial_number":48},{"rt":null,"stimulus":"<div style=\"font-size:60px;\">+</div>","response":null,"screen":"fixation","trial_type":"html-keyboard-response","trial_index":101,"time_elapsed":60996,"internal_node_id":"0.0-3.0-2.0-0.48","participant_id":"4ckeuxr7ku","trial_duration":920},{"rt":383,"stimulus":"stimuli/Delboeuf_str0_diff-0.923154.png","response":"arrowright","screen":"Trial","block":"Delboeuf","correct_response":"arrowright","trial_type":"image-keyboard-response","trial_index":102,"time_elapsed":61382,"internal_node_id":"0.0-3.0-2.0-1.48","participant_id":"4ckeuxr7ku","prestimulus_duration":964,"correct":true,"type":"Delboeuf","illusion_strength":0,"illusion_difference":-0.9231538461538462,"block_number":1,"trial_number":49},{"rt":null,"stimulus":"<div style=\"font-size:60px;\">+</div>","response":null,"screen":"fixation","trial_type":"html-keyboard-response","trial_index":103,"time_elapsed":61971,"internal_node_id":"0.0-3.0-2.0-0.49","participant_id":"4ckeuxr7ku","trial_duration":587},{"rt":295,"stimulus":"stimuli/Delboeuf_str0_diff0.026615.png","response":"arrowright","screen":"Trial","block":"Delboeuf","correct_response":"arrowleft","trial_type":"image-keyboard-response","trial_index":104,"time_elapsed":62268,"internal_node_id":"0.0-3.0-2.0-1.49","participant_id":"4ckeuxr7ku","prestimulus_duration":589,"correct":false,"type":"Delboeuf","illusion_strength":0,"illusion_difference":0.026615384615384617,"block_number":1,"trial_number":50},{"rt":null,"stimulus":"<div style=\"font-size:60px;\">+</div>","response":null,"screen":"fixation","trial_type":"html-keyboard-response","trial_index":105,"time_elapsed":62836,"internal_node_id":"0.0-3.0-2.0-0.50","participant_id":"4ckeuxr7ku","trial_duration":563},{"rt":321,"stimulus":"stimuli/Delboeuf_str0_diff0.897538.png","response":"arrowleft","screen":"Trial","block":"Delboeuf","correct_response":"arrowleft","trial_type":"image-keyboard-response","trial_index":106,"time_elapsed":63159,"internal_node_id":"0.0-3.0-2.0-1.50","participant_id":"4ckeuxr7ku","prestimulus_duration":568,"correct":true,"type":"Delboeuf","illusion_strength":0,"illusion_difference":0.8975384615384616,"block_number":1,"trial_number":51},{"rt":null,"stimulus":"<div style=\"font-size:60px;\">+</div>","response":null,"screen":"fixation","trial_type":"html-keyboard-response","trial_index":107,"time_elapsed":63810,"internal_node_id":"0.0-3.0-2.0-0.51","participant_id":"4ckeuxr7ku","trial_duration":649},{"rt":339,"stimulus":"stimuli/Delboeuf_str0_diff-0.129077.png","response":"arrowright","screen":"Trial","block":"Delboeuf","correct_response":"arrowright","trial_type":"image-keyboard-response","trial_index":108,"time_elapsed":64150,"internal_node_id":"0.0-3.0-2.0-1.51","participant_id":"4ckeuxr7ku","prestimulus_duration":651,"correct":true,"type":"Delboeuf","illusion_strength":0,"illusion_difference":-0.1290769230769231,"block_number":1,"trial_number":52},{"rt":null,"stimulus":"<div style=\"font-size:60px;\">+</div>","response":null,"screen":"fixation","trial_type":"html-keyboard-response","trial_index":109,"time_elapsed":64700,"internal_node_id":"0.0-3.0-2.0-0.52","participant_id":"4ckeuxr7ku","trial_duration":535},{"rt":364,"stimulus":"stimuli/Delboeuf_str0_diff0.410846.png","response":"arrowleft","screen":"Trial","block":"Delboeuf","correct_response":"arrowleft","trial_type":"image-keyboard-response","trial_index":110,"time_elapsed":65066,"internal_node_id":"0.0-3.0-2.0-1.52","participant_id":"4ckeuxr7ku","prestimulus_duration":550,"correct":true,"type":"Delboeuf","illusion_strength":0,"illusion_difference":0.41084615384615386,"block_number":1,"trial_number":53},{"rt":null,"stimulus":"<div style=\"font-size:60px;\">+</div>","response":null,"screen":"fixation","trial_type":"html-keyboard-response","trial_index":111,"time_elapsed":66044,"internal_node_id":"0.0-3.0-2.0-0.53","participant_id":"4ckeuxr7ku","trial_duration":972},{"rt":316,"stimulus":"stimuli/Delboeuf_str0_diff-0.231538.png","response":"arrowleft","screen":"Trial","block":"Delboeuf","correct_response":"arrowright","trial_type":"image-keyboard-response","trial_index":112,"time_elapsed":66361,"internal_node_id":"0.0-3.0-2.0-1.53","participant_id":"4ckeuxr7ku","prestimulus_duration":978,"correct":false,"type":"Delboeuf","illusion_strength":0,"illusion_difference":-0.23153846153846155,"block_number":1,"trial_number":54},{"rt":null,"stimulus":"<div style=\"font-size:60px;\">+</div>","response":null,"screen":"fixation","trial_type":"html-keyboard-response","trial_index":113,"time_elapsed":67026,"internal_node_id":"0.0-3.0-2.0-0.54","participant_id":"4ckeuxr7ku","trial_duration":649},{"rt":324,"stimulus":"stimuli/Delboeuf_str0_diff-0.052231.png","response":"arrowright","screen":"Trial","block":"Delboeuf","correct_response":"arrowright","trial_type":"image-keyboard-response","trial_index":114,"time_elapsed":67351,"internal_node_id":"0.0-3.0-2.0-1.54","participant_id":"4ckeuxr7ku","prestimulus_duration":665,"correct":true,"type":"Delboeuf","illusion_strength":0,"illusion_difference":-0.05223076923076923,"block_number":1,"trial_number":55},{"rt":null,"stimulus":"<div style=\"font-size:60px;\">+</div>","response":null,"screen":"fixation","trial_type":"html-keyboard-response","trial_index":115,"time_elapsed":68294,"internal_node_id":"0.0-3.0-2.0-0.55","participant_id":"4ckeuxr7ku","trial_duration":937},{"rt":370,"stimulus":"stimuli/Delboeuf_str0_diff0.462077.png","response":"arrowleft","screen":"Trial","block":"Delboeuf","correct_response":"arrowleft","trial_type":"image-keyboard-response","trial_index":116,"time_elapsed":68694,"internal_node_id":"0.0-3.0-2.0-1.55","participant_id":"4ckeuxr7ku","prestimulus_duration":943,"correct":true,"type":"Delboeuf","illusion_strength":0,"illusion_difference":0.4620769230769231,"block_number":1,"trial_number":56},{"rt":null,"stimulus":"<div style=\"font-size:60px;\">+</div>","response":null,"screen":"fixation","trial_type":"html-keyboard-response","trial_index":117,"time_elapsed":69299,"internal_node_id":"0.0-3.0-2.0-0.56","participant_id":"4ckeuxr7ku","trial_duration":595},{"rt":342,"stimulus":"stimuli/Delboeuf_str0_diff0.564538.png","response":"arrowleft","screen":"Trial","block":"Delboeuf","correct_response":"arrowleft","trial_type":"image-keyboard-response","trial_index":118,"time_elapsed":69642,"internal_node_id":"0.0-3.0-2.0-1.56","participant_id":"4ckeuxr7ku","prestimulus_duration":605,"correct":true,"type":"Delboeuf","illusion_strength":0,"illusion_difference":0.5645384615384615,"block_number":1,"trial_number":57},{"rt":null,"stimulus":"<div style=\"font-size:60px;\">+</div>","response":null,"screen":"fixation","trial_type":"html-keyboard-response","trial_index":119,"time_elapsed":70452,"internal_node_id":"0.0-3.0-2.0-0.57","participant_id":"4ckeuxr7ku","trial_duration":799},{"rt":326,"stimulus":"stimuli/Delboeuf_str0_diff-0.769462.png","response":"arrowright","screen":"Trial","block":"Delboeuf","correct_response":"arrowright","trial_type":"image-keyboard-response","trial_index":120,"time_elapsed":70780,"internal_node_id":"0.0-3.0-2.0-1.57","participant_id":"4ckeuxr7ku","prestimulus_duration":810,"correct":true,"type":"Delboeuf","illusion_strength":0,"illusion_difference":-0.7694615384615385,"block_number":1,"trial_number":58},{"rt":null,"stimulus":"<div style=\"font-size:60px;\">+</div>","response":null,"screen":"fixation","trial_type":"html-keyboard-response","trial_index":121,"time_elapsed":71776,"internal_node_id":"0.0-3.0-2.0-0.58","participant_id":"4ckeuxr7ku","trial_duration":990},{"rt":295,"stimulus":"stimuli/Delboeuf_str0_diff-0.487692.png","response":"arrowright","screen":"Trial","block":"Delboeuf","correct_response":"arrowright","trial_type":"image-keyboard-response","trial_index":122,"time_elapsed":72073,"internal_node_id":"0.0-3.0-2.0-1.58","participant_id":"4ckeuxr7ku","prestimulus_duration":996,"correct":true,"type":"Delboeuf","illusion_strength":0,"illusion_difference":-0.4876923076923077,"block_number":1,"trial_number":59},{"rt":null,"stimulus":"<div style=\"font-size:60px;\">+</div>","response":null,"screen":"fixation","trial_type":"html-keyboard-response","trial_index":123,"time_elapsed":72943,"internal_node_id":"0.0-3.0-2.0-0.59","participant_id":"4ckeuxr7ku","trial_duration":854},{"rt":389,"stimulus":"stimuli/Delboeuf_str0_diff0.308385.png","response":"arrowleft","screen":"Trial","block":"Delboeuf","correct_response":"arrowleft","trial_type":"image-keyboard-response","trial_index":124,"time_elapsed":73334,"internal_node_id":"0.0-3.0-2.0-1.59","participant_id":"4ckeuxr7ku","prestimulus_duration":870,"correct":true,"type":"Delboeuf","illusion_strength":0,"illusion_difference":0.30838461538461537,"block_number":1,"trial_number":60},{"rt":null,"stimulus":"<div style=\"font-size:60px;\">+</div>","response":null,"screen":"fixation","trial_type":"html-keyboard-response","trial_index":125,"time_elapsed":74016,"internal_node_id":"0.0-3.0-2.0-0.60","participant_id":"4ckeuxr7ku","trial_duration":675},{"rt":371,"stimulus":"stimuli/Delboeuf_str0_diff-0.026615.png","response":"arrowleft","screen":"Trial","block":"Delboeuf","correct_response":"arrowright","trial_type":"image-keyboard-response","trial_index":126,"time_elapsed":74388,"internal_node_id":"0.0-3.0-2.0-1.60","participant_id":"4ckeuxr7ku","prestimulus_duration":682,"correct":false,"type":"Delboeuf","illusion_strength":0,"illusion_difference":-0.026615384615384617,"block_number":1,"trial_number":61},{"rt":null,"stimulus":"<div style=\"font-size:60px;\">+</div>","response":null,"screen":"fixation","trial_type":"html-keyboard-response","trial_index":127,"time_elapsed":74930,"internal_node_id":"0.0-3.0-2.0-0.61","participant_id":"4ckeuxr7ku","trial_duration":536},{"rt":294,"stimulus":"stimuli/Delboeuf_str0_diff0.641385.png","response":"arrowleft","screen":"Trial","block":"Delboeuf","correct_response":"arrowleft","trial_type":"image-keyboard-response","trial_index":128,"time_elapsed":75225,"internal_node_id":"0.0-3.0-2.0-1.61","participant_id":"4ckeuxr7ku","prestimulus_duration":542,"correct":true,"type":"Delboeuf","illusion_strength":0,"illusion_difference":0.6413846153846154,"block_number":1,"trial_number":62},{"rt":null,"stimulus":"<div style=\"font-size:60px;\">+</div>","response":null,"screen":"fixation","trial_type":"html-keyboard-response","trial_index":129,"time_elapsed":76160,"internal_node_id":"0.0-3.0-2.0-0.62","participant_id":"4ckeuxr7ku","trial_duration":921},{"rt":350,"stimulus":"stimuli/Delboeuf_str0_diff-0.538923.png","response":"arrowright","screen":"Trial","block":"Delboeuf","correct_response":"arrowright","trial_type":"image-keyboard-response","trial_index":130,"time_elapsed":76511,"internal_node_id":"0.0-3.0-2.0-1.62","participant_id":"4ckeuxr7ku","prestimulus_duration":935,"correct":true,"type":"Delboeuf","illusion_strength":0,"illusion_difference":-0.538923076923077,"block_number":1,"trial_number":63},{"rt":null,"stimulus":"<div style=\"font-size:60px;\">+</div>","response":null,"screen":"fixation","trial_type":"html-keyboard-response","trial_index":131,"time_elapsed":77112,"internal_node_id":"0.0-3.0-2.0-0.63","participant_id":"4ckeuxr7ku","trial_duration":597},{"rt":292,"stimulus":"stimuli/Delboeuf_str0_diff-0.257154.png","response":"arrowright","screen":"Trial","block":"Delboeuf","correct_response":"arrowright","trial_type":"image-keyboard-response","trial_index":132,"time_elapsed":77405,"internal_node_id":"0.0-3.0-2.0-1.63","participant_id":"4ckeuxr7ku","prestimulus_duration":601,"correct":true,"type":"Delboeuf","illusion_strength":0,"illusion_difference":-0.2571538461538462,"block_number":1,"trial_number":64},{"rt":null,"stimulus":"<div style=\"font-size:60px;\">+</div>","response":null,"screen":"fixation","trial_type":"html-keyboard-response","trial_index":133,"time_elapsed":78053,"internal_node_id":"0.0-3.0-2.0-0.64","participant_id":"4ckeuxr7ku","trial_duration":634},{"rt":632,"stimulus":"stimuli/Delboeuf_str0_diff0.154692.png","response":"arrowright","screen":"Trial","block":"Delboeuf","correct_response":"arrowleft","trial_type":"image-keyboard-response","trial_index":134,"time_elapsed":78686,"internal_node_id":"0.0-3.0-2.0-1.64","participant_id":"4ckeuxr7ku","prestimulus_duration":648,"correct":false,"type":"Delboeuf","illusion_strength":0,"illusion_difference":0.15469230769230768,"block_number":1,"trial_number":65},{"rt":null,"stimulus":"<div style=\"font-size:60px;\">+</div>","response":null,"screen":"fixation","trial_type":"html-keyboard-response","trial_index":135,"time_elapsed":79380,"internal_node_id":"0.0-3.0-2.0-0.65","participant_id":"4ckeuxr7ku","trial_duration":681},{"rt":318,"stimulus":"stimuli/Delboeuf_str0_diff0.923154.png","response":"arrowleft","screen":"Trial","block":"Delboeuf","correct_response":"arrowleft","trial_type":"image-keyboard-response","trial_index":136,"time_elapsed":79700,"internal_node_id":"0.0-3.0-2.0-1.65","participant_id":"4ckeuxr7ku","prestimulus_duration":694,"correct":true,"type":"Delboeuf","illusion_strength":0,"illusion_difference":0.9231538461538462,"block_number":1,"trial_number":66},{"rt":null,"stimulus":"<div style=\"font-size:60px;\">+</div>","response":null,"screen":"fixation","trial_type":"html-keyboard-response","trial_index":137,"time_elapsed":80386,"internal_node_id":"0.0-3.0-2.0-0.66","participant_id":"4ckeuxr7ku","trial_duration":670},{"rt":282,"stimulus":"stimuli/Delboeuf_str0_diff-0.948769.png","response":"arrowleft","screen":"Trial","block":"Delboeuf","correct_response":"arrowright","trial_type":"image-keyboard-response","trial_index":138,"time_elapsed":80670,"internal_node_id":"0.0-3.0-2.0-1.66","participant_id":"4ckeuxr7ku","prestimulus_duration":686,"correct":false,"type":"Delboeuf","illusion_strength":0,"illusion_difference":-0.9487692307692308,"block_number":1,"trial_number":67},{"rt":null,"stimulus":"<div style=\"font-size:60px;\">+</div>","response":null,"screen":"fixation","trial_type":"html-keyboard-response","trial_index":139,"time_elapsed":81620,"internal_node_id":"0.0-3.0-2.0-0.67","participant_id":"4ckeuxr7ku","trial_duration":942},{"rt":319,"stimulus":"stimuli/Delboeuf_str0_diff0.077846.png","response":"arrowright","screen":"Trial","block":"Delboeuf","correct_response":"arrowleft","trial_type":"image-keyboard-response","trial_index":140,"time_elapsed":81940,"internal_node_id":"0.0-3.0-2.0-1.67","participant_id":"4ckeuxr7ku","prestimulus_duration":950,"correct":false,"type":"Delboeuf","illusion_strength":0,"illusion_difference":0.07784615384615384,"block_number":1,"trial_number":68},{"rt":null,"stimulus":"<div style=\"font-size:60px;\">+</div>","response":null,"screen":"fixation","trial_type":"html-keyboard-response","trial_index":141,"time_elapsed":82682,"internal_node_id":"0.0-3.0-2.0-0.68","participant_id":"4ckeuxr7ku","trial_duration":739},{"rt":281,"stimulus":"stimuli/Delboeuf_str0_diff0.231538.png","response":"arrowleft","screen":"Trial","block":"Delboeuf","correct_response":"arrowleft","trial_type":"image-keyboard-response","trial_index":142,"time_elapsed":82966,"internal_node_id":"0.0-3.0-2.0-1.68","participant_id":"4ckeuxr7ku","prestimulus_duration":742,"correct":true,"type":"Delboeuf","illusion_strength":0,"illusion_difference":0.23153846153846155,"block_number":1,"trial_number":69},{"rt":null,"stimulus":"<div style=\"font-size:60px;\">+</div>","response":null,"screen":"fixation","trial_type":"html-keyboard-response","trial_index":143,"time_elapsed":83882,"internal_node_id":"0.0-3.0-2.0-0.69","participant_id":"4ckeuxr7ku","trial_duration":913},{"rt":85,"stimulus":"stimuli/Delboeuf_str0_diff-0.590154.png","response":"arrowleft","screen":"Trial","block":"Delboeuf","correct_response":"arrowright","trial_type":"image-keyboard-response","trial_index":144,"time_elapsed":83969,"internal_node_id":"0.0-3.0-2.0-1.69","participant_id":"4ckeuxr7ku","prestimulus_duration":916,"correct":false,"type":"Delboeuf","illusion_strength":0,"illusion_difference":-0.5901538461538461,"block_number":1,"trial_number":70},{"rt":null,"stimulus":"<div style=\"font-size:60px;\">+</div>","response":null,"screen":"fixation","trial_type":"html-keyboard-response","trial_index":145,"time_elapsed":84836,"internal_node_id":"0.0-3.0-2.0-0.70","participant_id":"4ckeuxr7ku","trial_duration":852},{"rt":561,"stimulus":"stimuli/Delboeuf_str0_diff0.974385.png","response":"arrowleft","screen":"Trial","block":"Delboeuf","correct_response":"arrowleft","trial_type":"image-keyboard-response","trial_index":146,"time_elapsed":85399,"internal_node_id":"0.0-3.0-2.0-1.70","participant_id":"4ckeuxr7ku","prestimulus_duration":867,"correct":true,"type":"Delboeuf","illusion_strength":0,"illusion_difference":0.9743846153846154,"block_number":1,"trial_number":71},{"rt":null,"stimulus":"<div style=\"font-size:60px;\">+</div>","response":null,"screen":"fixation","trial_type":"html-keyboard-response","trial_index":147,"time_elapsed":85961,"internal_node_id":"0.0-3.0-2.0-0.71","participant_id":"4ckeuxr7ku","trial_duration":547},{"rt":291,"stimulus":"stimuli/Delboeuf_str0_diff0.667.png","response":"arrowleft","screen":"Trial","block":"Delboeuf","correct_response":"arrowleft","trial_type":"image-keyboard-response","trial_index":148,"time_elapsed":86254,"internal_node_id":"0.0-3.0-2.0-1.71","participant_id":"4ckeuxr7ku","prestimulus_duration":562,"correct":true,"type":"Delboeuf","illusion_strength":0,"illusion_difference":0.667,"block_number":1,"trial_number":72},{"rt":null,"stimulus":"<div style=\"font-size:60px;\">+</div>","response":null,"screen":"fixation","trial_type":"html-keyboard-response","trial_index":149,"time_elapsed":87206,"internal_node_id":"0.0-3.0-2.0-0.72","participant_id":"4ckeuxr7ku","trial_duration":947},{"rt":397,"stimulus":"stimuli/Delboeuf_str0_diff-0.282769.png","response":"arrowright","screen":"Trial","block":"Delboeuf","correct_response":"arrowright","trial_type":"image-keyboard-response","trial_index":150,"time_elapsed":87606,"internal_node_id":"0.0-3.0-2.0-1.72","participant_id":"4ckeuxr7ku","prestimulus_duration":952,"correct":true,"type":"Delboeuf","illusion_strength":0,"illusion_difference":-0.2827692307692308,"block_number":1,"trial_number":73},{"rt":null,"stimulus":"<div style=\"font-size:60px;\">+</div>","response":null,"screen":"fixation","trial_type":"html-keyboard-response","trial_index":151,"time_elapsed":88240,"internal_node_id":"0.0-3.0-2.0-0.73","participant_id":"4ckeuxr7ku","trial_duration":626},{"rt":385,"stimulus":"stimuli/Delboeuf_str0_diff-0.462077.png","response":"arrowright","screen":"Trial","block":"Delboeuf","correct_response":"arrowright","trial_type":"image-keyboard-response","trial_index":152,"time_elapsed":88627,"internal_node_id":"0.0-3.0-2.0-1.73","participant_id":"4ckeuxr7ku","prestimulus_duration":634,"correct":true,"type":"Delboeuf","illusion_strength":0,"illusion_difference":-0.4620769230769231,"block_number":1,"trial_number":74},{"rt":null,"stimulus":"<div style=\"font-size:60px;\">+</div>","response":null,"screen":"fixation","trial_type":"html-keyboard-response","trial_index":153,"time_elapsed":89442,"internal_node_id":"0.0-3.0-2.0-0.74","participant_id":"4ckeuxr7ku","trial_duration":811},{"rt":370,"stimulus":"stimuli/Delboeuf_str0_diff0.538923.png","response":"arrowleft","screen":"Trial","block":"Delboeuf","correct_response":"arrowleft","trial_type":"image-keyboard-response","trial_index":154,"time_elapsed":89814,"internal_node_id":"0.0-3.0-2.0-1.74","participant_id":"4ckeuxr7ku","prestimulus_duration":815,"correct":true,"type":"Delboeuf","illusion_strength":0,"illusion_difference":0.538923076923077,"block_number":1,"trial_number":75},{"rt":null,"stimulus":"<div style=\"font-size:60px;\">+</div>","response":null,"screen":"fixation","trial_type":"html-keyboard-response","trial_index":155,"time_elapsed":90469,"internal_node_id":"0.0-3.0-2.0-0.75","participant_id":"4ckeuxr7ku","trial_duration":644},{"rt":305,"stimulus":"stimuli/Delboeuf_str0_diff0.052231.png","response":"arrowleft","screen":"Trial","block":"Delboeuf","correct_response":"arrowleft","trial_type":"image-keyboard-response","trial_index":156,"time_elapsed":90775,"internal_node_id":"0.0-3.0-2.0-1.75","participant_id":"4ckeuxr7ku","prestimulus_duration":655,"correct":true,"type":"Delboeuf","illusion_strength":0,"illusion_difference":0.05223076923076923,"block_number":1,"trial_number":76},{"rt":null,"stimulus":"<div style=\"font-size:60px;\">+</div>","response":null,"screen":"fixation","trial_type":"html-keyboard-response","trial_index":157,"time_elapsed":91595,"internal_node_id":"0.0-3.0-2.0-0.76","participant_id":"4ckeuxr7ku","trial_duration":805},{"rt":255,"stimulus":"stimuli/Delboeuf_str0_diff0.103462.png","response":"arrowleft","screen":"Trial","block":"Delboeuf","correct_response":"arrowleft","trial_type":"image-keyboard-response","trial_index":158,"time_elapsed":91852,"internal_node_id":"0.0-3.0-2.0-1.76","participant_id":"4ckeuxr7ku","prestimulus_duration":820,"correct":true,"type":"Delboeuf","illusion_strength":0,"illusion_difference":0.10346153846153847,"block_number":1,"trial_number":77},{"rt":null,"stimulus":"<div style=\"font-size:60px;\">+</div>","response":null,"screen":"fixation","trial_type":"html-keyboard-response","trial_index":159,"time_elapsed":92656,"internal_node_id":"0.0-3.0-2.0-0.77","participant_id":"4ckeuxr7ku","trial_duration":793},{"rt":266,"stimulus":"stimuli/Delboeuf_str0_diff0.359615.png","response":"arrowright","screen":"Trial","block":"Delboeuf","correct_response":"arrowleft","trial_type":"image-keyboard-response","trial_index":160,"time_elapsed":92924,"internal_node_id":"0.0-3.0-2.0-1.77","participant_id":"4ckeuxr7ku","prestimulus_duration":804,"correct":false,"type":"Delboeuf","illusion_strength":0,"illusion_difference":0.3596153846153846,"block_number":1,"trial_number":78},{"rt":null,"stimulus":"<div style=\"font-size:60px;\">+</div>","response":null,"screen":"fixation","trial_type":"html-keyboard-response","trial_index":161,"time_elapsed":93826,"internal_node_id":"0.0-3.0-2.0-0.78","participant_id":"4ckeuxr7ku","trial_duration":895},{"rt":251,"stimulus":"stimuli/Delboeuf_str0_diff-1.0.png","response":"arrowleft","screen":"Trial","block":"Delboeuf","correct_response":"arrowright","trial_type":"image-keyboard-response","trial_index":162,"time_elapsed":94078,"internal_node_id":"0.0-3.0-2.0-1.78","participant_id":"4ckeuxr7ku","prestimulus_duration":902,"correct":false,"type":"Delboeuf","illusion_strength":0,"illusion_difference":-1,"block_number":1,"trial_number":79},{"rt":null,"stimulus":"<div style=\"font-size:60px;\">+</div>","response":null,"screen":"fixation","trial_type":"html-keyboard-response","trial_index":163,"time_elapsed":94694,"internal_node_id":"0.0-3.0-2.0-0.79","participant_id":"4ckeuxr7ku","trial_duration":610},{"rt":471,"stimulus":"stimuli/Delboeuf_str0_diff-0.001.png","response":"arrowright","screen":"Trial","block":"Delboeuf","correct_response":"arrowright","trial_type":"image-keyboard-response","trial_index":164,"time_elapsed":95168,"internal_node_id":"0.0-3.0-2.0-1.79","participant_id":"4ckeuxr7ku","prestimulus_duration":616,"correct":true,"type":"Delboeuf","illusion_strength":0,"illusion_difference":-0.001,"block_number":1,"trial_number":80},{"rt":8498,"stimulus":"<p>Great job!</p><p>Can you do better in the next block?</p>","response":0,"screen":"block_results","trial_type":"html-button-response","trial_index":165,"time_elapsed":103674,"internal_node_id":"0.0-3.0-3.0","participant_id":"4ckeuxr7ku"},{"success":true,"timeout":false,"failed_images":[],"failed_audio":[],"failed_video":[],"trial_type":"preload","trial_index":166,"time_elapsed":108259,"internal_node_id":"0.0-4.0-0.0","participant_id":"4ckeuxr7ku"},{"rt":1233,"stimulus":"<p><b>Part 2</b></p><p>In this part, two horizontal red lines will appear one above the other.</p><p>Your task is to select which <b>line is longer</b> in length as fast as you can, without making errors.</p><p>Press <b>the UP or the DOWN arrow</b> to indicate where is the longer <b>red line.</b></p><div style='float: center'><img src='utils/stimuli_demo/MullerLyer_Demo.png' height='300'></img><p><img src='utils/answer/answer_updown_keyboard.PNG' height='150'></img></p><p class='small'>In this example, the correct answer is the <b>UP arrow</b>.</p></div><p>Are you ready? <b>Press ENTER to start</b></p>","response":"enter","trial_type":"html-keyboard-response","trial_index":167,"time_elapsed":109481,"internal_node_id":"0.0-4.0-1.0","participant_id":"4ckeuxr7ku"},{"rt":null,"stimulus":"<div style=\"font-size:60px;\">+</div>","response":null,"screen":"fixation","trial_type":"html-keyboard-response","trial_index":168,"time_elapsed":110606,"internal_node_id":"0.0-4.0-2.0-0.0","participant_id":"4ckeuxr7ku","trial_duration":604},{"rt":399,"stimulus":"stimuli/MullerLyer_str0_diff-0.365846.png","response":"arrowdown","screen":"Trial","block":"MullerLyer","correct_response":"arrowdown","trial_type":"image-keyboard-response","trial_index":169,"time_elapsed":111007,"internal_node_id":"0.0-4.0-2.0-1.0","participant_id":"4ckeuxr7ku","prestimulus_duration":1125,"correct":true,"type":"MullerLyer","illusion_strength":0,"illusion_difference":-0.3658461538461539,"block_number":2,"trial_number":1},{"rt":null,"stimulus":"<div style=\"font-size:60px;\">+</div>","response":null,"screen":"fixation","trial_type":"html-keyboard-response","trial_index":170,"time_elapsed":111712,"internal_node_id":"0.0-4.0-2.0-0.1","participant_id":"4ckeuxr7ku","trial_duration":701},{"rt":374,"stimulus":"stimuli/MullerLyer_str0_diff-0.012769.png","response":"arrowdown","screen":"Trial","block":"MullerLyer","correct_response":"arrowdown","trial_type":"image-keyboard-response","trial_index":171,"time_elapsed":112088,"internal_node_id":"0.0-4.0-2.0-1.1","participant_id":"4ckeuxr7ku","prestimulus_duration":705,"correct":true,"type":"MullerLyer","illusion_strength":0,"illusion_difference":-0.012769230769230769,"block_number":2,"trial_number":2},{"rt":null,"stimulus":"<div style=\"font-size:60px;\">+</div>","response":null,"screen":"fixation","trial_type":"html-keyboard-response","trial_index":172,"time_elapsed":112714,"internal_node_id":"0.0-4.0-2.0-0.2","participant_id":"4ckeuxr7ku","trial_duration":610},{"rt":305,"stimulus":"stimuli/MullerLyer_str0_diff0.412923.png","response":"arrowup","screen":"Trial","block":"MullerLyer","correct_response":"arrowup","trial_type":"image-keyboard-response","trial_index":173,"time_elapsed":113021,"internal_node_id":"0.0-4.0-2.0-1.2","participant_id":"4ckeuxr7ku","prestimulus_duration":626,"correct":true,"type":"MullerLyer","illusion_strength":0,"illusion_difference":0.41292307692307695,"block_number":2,"trial_number":3},{"rt":null,"stimulus":"<div style=\"font-size:60px;\">+</div>","response":null,"screen":"fixation","trial_type":"html-keyboard-response","trial_index":174,"time_elapsed":113899,"internal_node_id":"0.0-4.0-2.0-0.3","participant_id":"4ckeuxr7ku","trial_duration":870},{"rt":369,"stimulus":"stimuli/MullerLyer_str0_diff0.424692.png","response":"arrowup","screen":"Trial","block":"MullerLyer","correct_response":"arrowup","trial_type":"image-keyboard-response","trial_index":175,"time_elapsed":114270,"internal_node_id":"0.0-4.0-2.0-1.3","participant_id":"4ckeuxr7ku","prestimulus_duration":878,"correct":true,"type":"MullerLyer","illusion_strength":0,"illusion_difference":0.4246923076923077,"block_number":2,"trial_number":4},{"rt":null,"stimulus":"<div style=\"font-size:60px;\">+</div>","response":null,"screen":"fixation","trial_type":"html-keyboard-response","trial_index":176,"time_elapsed":114856,"internal_node_id":"0.0-4.0-2.0-0.4","participant_id":"4ckeuxr7ku","trial_duration":573},{"rt":482,"stimulus":"stimuli/MullerLyer_str0_diff-0.236385.png","response":"arrowdown","screen":"Trial","block":"MullerLyer","correct_response":"arrowdown","trial_type":"image-keyboard-response","trial_index":177,"time_elapsed":115340,"internal_node_id":"0.0-4.0-2.0-1.4","participant_id":"4ckeuxr7ku","prestimulus_duration":586,"correct":true,"type":"MullerLyer","illusion_strength":0,"illusion_difference":-0.2363846153846154,"block_number":2,"trial_number":5},{"rt":null,"stimulus":"<div style=\"font-size:60px;\">+</div>","response":null,"screen":"fixation","trial_type":"html-keyboard-response","trial_index":178,"time_elapsed":116017,"internal_node_id":"0.0-4.0-2.0-0.5","participant_id":"4ckeuxr7ku","trial_duration":667},{"rt":403,"stimulus":"stimuli/MullerLyer_str0_diff-0.095154.png","response":"arrowdown","screen":"Trial","block":"MullerLyer","correct_response":"arrowdown","trial_type":"image-keyboard-response","trial_index":179,"time_elapsed":116422,"internal_node_id":"0.0-4.0-2.0-1.5","participant_id":"4ckeuxr7ku","prestimulus_duration":677,"correct":true,"type":"MullerLyer","illusion_strength":0,"illusion_difference":-0.09515384615384616,"block_number":2,"trial_number":6},{"rt":null,"stimulus":"<div style=\"font-size:60px;\">+</div>","response":null,"screen":"fixation","trial_type":"html-keyboard-response","trial_index":180,"time_elapsed":117098,"internal_node_id":"0.0-4.0-2.0-0.6","participant_id":"4ckeuxr7ku","trial_duration":673},{"rt":347,"stimulus":"stimuli/MullerLyer_str0_diff0.318769.png","response":"arrowup","screen":"Trial","block":"MullerLyer","correct_response":"arrowup","trial_type":"image-keyboard-response","trial_index":181,"time_elapsed":117446,"internal_node_id":"0.0-4.0-2.0-1.6","participant_id":"4ckeuxr7ku","prestimulus_duration":676,"correct":true,"type":"MullerLyer","illusion_strength":0,"illusion_difference":0.3187692307692308,"block_number":2,"trial_number":7},{"rt":null,"stimulus":"<div style=\"font-size:60px;\">+</div>","response":null,"screen":"fixation","trial_type":"html-keyboard-response","trial_index":182,"time_elapsed":117994,"internal_node_id":"0.0-4.0-2.0-0.7","participant_id":"4ckeuxr7ku","trial_duration":506},{"rt":354,"stimulus":"stimuli/MullerLyer_str0_diff0.46.png","response":"arrowup","screen":"Trial","block":"MullerLyer","correct_response":"arrowup","trial_type":"image-keyboard-response","trial_index":183,"time_elapsed":118350,"internal_node_id":"0.0-4.0-2.0-1.7","participant_id":"4ckeuxr7ku","prestimulus_duration":548,"correct":true,"type":"MullerLyer","illusion_strength":0,"illusion_difference":0.46,"block_number":2,"trial_number":8},{"rt":null,"stimulus":"<div style=\"font-size:60px;\">+</div>","response":null,"screen":"fixation","trial_type":"html-keyboard-response","trial_index":184,"time_elapsed":119286,"internal_node_id":"0.0-4.0-2.0-0.8","participant_id":"4ckeuxr7ku","trial_duration":929},{"rt":251,"stimulus":"stimuli/MullerLyer_str0_diff0.236385.png","response":"arrowdown","screen":"Trial","block":"MullerLyer","correct_response":"arrowup","trial_type":"image-keyboard-response","trial_index":185,"time_elapsed":119539,"internal_node_id":"0.0-4.0-2.0-1.8","participant_id":"4ckeuxr7ku","prestimulus_duration":936,"correct":false,"type":"MullerLyer","illusion_strength":0,"illusion_difference":0.2363846153846154,"block_number":2,"trial_number":9},{"rt":null,"stimulus":"<div style=\"font-size:60px;\">+</div>","response":null,"screen":"fixation","trial_type":"html-keyboard-response","trial_index":186,"time_elapsed":120282,"internal_node_id":"0.0-4.0-2.0-0.9","participant_id":"4ckeuxr7ku","trial_duration":733},{"rt":199,"stimulus":"stimuli/MullerLyer_str0_diff-0.295231.png","response":"arrowup","screen":"Trial","block":"MullerLyer","correct_response":"arrowdown","trial_type":"image-keyboard-response","trial_index":187,"time_elapsed":120483,"internal_node_id":"0.0-4.0-2.0-1.9","participant_id":"4ckeuxr7ku","prestimulus_duration":743,"correct":false,"type":"MullerLyer","illusion_strength":0,"illusion_difference":-0.29523076923076924,"block_number":2,"trial_number":10},{"rt":null,"stimulus":"<div style=\"font-size:60px;\">+</div>","response":null,"screen":"fixation","trial_type":"html-keyboard-response","trial_index":188,"time_elapsed":121482,"internal_node_id":"0.0-4.0-2.0-0.10","participant_id":"4ckeuxr7ku","trial_duration":993},{"rt":378,"stimulus":"stimuli/MullerLyer_str0_diff-0.036308.png","response":"arrowdown","screen":"Trial","block":"MullerLyer","correct_response":"arrowdown","trial_type":"image-keyboard-response","trial_index":189,"time_elapsed":121861,"internal_node_id":"0.0-4.0-2.0-1.10","participant_id":"4ckeuxr7ku","prestimulus_duration":999,"correct":true,"type":"MullerLyer","illusion_strength":0,"illusion_difference":-0.03630769230769231,"block_number":2,"trial_number":11},{"rt":null,"stimulus":"<div style=\"font-size:60px;\">+</div>","response":null,"screen":"fixation","trial_type":"html-keyboard-response","trial_index":190,"time_elapsed":122399,"internal_node_id":"0.0-4.0-2.0-0.11","participant_id":"4ckeuxr7ku","trial_duration":529},{"rt":458,"stimulus":"stimuli/MullerLyer_str0_diff-0.048077.png","response":"arrowdown","screen":"Trial","block":"MullerLyer","correct_response":"arrowdown","trial_type":"image-keyboard-response","trial_index":191,"time_elapsed":122859,"internal_node_id":"0.0-4.0-2.0-1.11","participant_id":"4ckeuxr7ku","prestimulus_duration":538,"correct":true,"type":"MullerLyer","illusion_strength":0,"illusion_difference":-0.04807692307692308,"block_number":2,"trial_number":12},{"rt":null,"stimulus":"<div style=\"font-size:60px;\">+</div>","response":null,"screen":"fixation","trial_type":"html-keyboard-response","trial_index":192,"time_elapsed":123824,"internal_node_id":"0.0-4.0-2.0-0.12","participant_id":"4ckeuxr7ku","trial_duration":954},{"rt":300,"stimulus":"stimuli/MullerLyer_str0_diff0.248154.png","response":"arrowdown","screen":"Trial","block":"MullerLyer","correct_response":"arrowup","trial_type":"image-keyboard-response","trial_index":193,"time_elapsed":124126,"internal_node_id":"0.0-4.0-2.0-1.12","participant_id":"4ckeuxr7ku","prestimulus_duration":965,"correct":false,"type":"MullerLyer","illusion_strength":0,"illusion_difference":0.24815384615384617,"block_number":2,"trial_number":13},{"rt":null,"stimulus":"<div style=\"font-size:60px;\">+</div>","response":null,"screen":"fixation","trial_type":"html-keyboard-response","trial_index":194,"time_elapsed":124728,"internal_node_id":"0.0-4.0-2.0-0.13","participant_id":"4ckeuxr7ku","trial_duration":599},{"rt":577,"stimulus":"stimuli/MullerLyer_str0_diff0.201077.png","response":"arrowup","screen":"Trial","block":"MullerLyer","correct_response":"arrowup","trial_type":"image-keyboard-response","trial_index":195,"time_elapsed":125307,"internal_node_id":"0.0-4.0-2.0-1.13","participant_id":"4ckeuxr7ku","prestimulus_duration":602,"correct":true,"type":"MullerLyer","illusion_strength":0,"illusion_difference":0.2010769230769231,"block_number":2,"trial_number":14},{"rt":null,"stimulus":"<div style=\"font-size:60px;\">+</div>","response":null,"screen":"fixation","trial_type":"html-keyboard-response","trial_index":196,"time_elapsed":126073,"internal_node_id":"0.0-4.0-2.0-0.14","participant_id":"4ckeuxr7ku","trial_duration":757},{"rt":394,"stimulus":"stimuli/MullerLyer_str0_diff-0.46.png","response":"arrowdown","screen":"Trial","block":"MullerLyer","correct_response":"arrowdown","trial_type":"image-keyboard-response","trial_index":197,"time_elapsed":126468,"internal_node_id":"0.0-4.0-2.0-1.14","participant_id":"4ckeuxr7ku","prestimulus_duration":766,"correct":true,"type":"MullerLyer","illusion_strength":0,"illusion_difference":-0.46,"block_number":2,"trial_number":15},{"rt":null,"stimulus":"<div style=\"font-size:60px;\">+</div>","response":null,"screen":"fixation","trial_type":"html-keyboard-response","trial_index":198,"time_elapsed":127108,"internal_node_id":"0.0-4.0-2.0-0.15","participant_id":"4ckeuxr7ku","trial_duration":624},{"rt":358,"stimulus":"stimuli/MullerLyer_str0_diff-0.189308.png","response":"arrowdown","screen":"Trial","block":"MullerLyer","correct_response":"arrowdown","trial_type":"image-keyboard-response","trial_index":199,"time_elapsed":127470,"internal_node_id":"0.0-4.0-2.0-1.15","participant_id":"4ckeuxr7ku","prestimulus_duration":640,"correct":true,"type":"MullerLyer","illusion_strength":0,"illusion_difference":-0.18930769230769232,"block_number":2,"trial_number":16},{"rt":null,"stimulus":"<div style=\"font-size:60px;\">+</div>","response":null,"screen":"fixation","trial_type":"html-keyboard-response","trial_index":200,"time_elapsed":128032,"internal_node_id":"0.0-4.0-2.0-0.16","participant_id":"4ckeuxr7ku","trial_duration":545},{"rt":415,"stimulus":"stimuli/MullerLyer_str0_diff0.259923.png","response":"arrowdown","screen":"Trial","block":"MullerLyer","correct_response":"arrowup","trial_type":"image-keyboard-response","trial_index":201,"time_elapsed":128449,"internal_node_id":"0.0-4.0-2.0-1.16","participant_id":"4ckeuxr7ku","prestimulus_duration":562,"correct":false,"type":"MullerLyer","illusion_strength":0,"illusion_difference":0.2599230769230769,"block_number":2,"trial_number":17},{"rt":null,"stimulus":"<div style=\"font-size:60px;\">+</div>","response":null,"screen":"fixation","trial_type":"html-keyboard-response","trial_index":202,"time_elapsed":129240,"internal_node_id":"0.0-4.0-2.0-0.17","participant_id":"4ckeuxr7ku","trial_duration":774},{"rt":367,"stimulus":"stimuli/MullerLyer_str0_diff0.377615.png","response":"arrowup","screen":"Trial","block":"MullerLyer","correct_response":"arrowup","trial_type":"image-keyboard-response","trial_index":203,"time_elapsed":129609,"internal_node_id":"0.0-4.0-2.0-1.17","participant_id":"4ckeuxr7ku","prestimulus_duration":791,"correct":true,"type":"MullerLyer","illusion_strength":0,"illusion_difference":0.37761538461538463,"block_number":2,"trial_number":18},{"rt":null,"stimulus":"<div style=\"font-size:60px;\">+</div>","response":null,"screen":"fixation","trial_type":"html-keyboard-response","trial_index":204,"time_elapsed":130162,"internal_node_id":"0.0-4.0-2.0-0.18","participant_id":"4ckeuxr7ku","trial_duration":539},{"rt":489,"stimulus":"stimuli/MullerLyer_str0_diff-0.342308.png","response":"arrowdown","screen":"Trial","block":"MullerLyer","correct_response":"arrowdown","trial_type":"image-keyboard-response","trial_index":205,"time_elapsed":130653,"internal_node_id":"0.0-4.0-2.0-1.18","participant_id":"4ckeuxr7ku","prestimulus_duration":553,"correct":true,"type":"MullerLyer","illusion_strength":0,"illusion_difference":-0.3423076923076923,"block_number":2,"trial_number":19},{"rt":null,"stimulus":"<div style=\"font-size:60px;\">+</div>","response":null,"screen":"fixation","trial_type":"html-keyboard-response","trial_index":206,"time_elapsed":131298,"internal_node_id":"0.0-4.0-2.0-0.19","participant_id":"4ckeuxr7ku","trial_duration":631},{"rt":322,"stimulus":"stimuli/MullerLyer_str0_diff0.165769.png","response":"arrowup","screen":"Trial","block":"MullerLyer","correct_response":"arrowup","trial_type":"image-keyboard-response","trial_index":207,"time_elapsed":131622,"internal_node_id":"0.0-4.0-2.0-1.19","participant_id":"4ckeuxr7ku","prestimulus_duration":645,"correct":true,"type":"MullerLyer","illusion_strength":0,"illusion_difference":0.16576923076923078,"block_number":2,"trial_number":20},{"rt":null,"stimulus":"<div style=\"font-size:60px;\">+</div>","response":null,"screen":"fixation","trial_type":"html-keyboard-response","trial_index":208,"time_elapsed":132429,"internal_node_id":"0.0-4.0-2.0-0.20","participant_id":"4ckeuxr7ku","trial_duration":798},{"rt":285,"stimulus":"stimuli/MullerLyer_str0_diff0.059846.png","response":"arrowup","screen":"Trial","block":"MullerLyer","correct_response":"arrowup","trial_type":"image-keyboard-response","trial_index":209,"time_elapsed":132716,"internal_node_id":"0.0-4.0-2.0-1.20","participant_id":"4ckeuxr7ku","prestimulus_duration":807,"correct":true,"type":"MullerLyer","illusion_strength":0,"illusion_difference":0.05984615384615385,"block_number":2,"trial_number":21},{"rt":null,"stimulus":"<div style=\"font-size:60px;\">+</div>","response":null,"screen":"fixation","trial_type":"html-keyboard-response","trial_index":210,"time_elapsed":133475,"internal_node_id":"0.0-4.0-2.0-0.21","participant_id":"4ckeuxr7ku","trial_duration":757},{"rt":279,"stimulus":"stimuli/MullerLyer_str0_diff-0.354077.png","response":"arrowup","screen":"Trial","block":"MullerLyer","correct_response":"arrowdown","trial_type":"image-keyboard-response","trial_index":211,"time_elapsed":133756,"internal_node_id":"0.0-4.0-2.0-1.21","participant_id":"4ckeuxr7ku","prestimulus_duration":759,"correct":false,"type":"MullerLyer","illusion_strength":0,"illusion_difference":-0.35407692307692307,"block_number":2,"trial_number":22},{"rt":null,"stimulus":"<div style=\"font-size:60px;\">+</div>","response":null,"screen":"fixation","trial_type":"html-keyboard-response","trial_index":212,"time_elapsed":134611,"internal_node_id":"0.0-4.0-2.0-0.22","participant_id":"4ckeuxr7ku","trial_duration":847},{"rt":315,"stimulus":"stimuli/MullerLyer_str0_diff0.354077.png","response":"arrowdown","screen":"Trial","block":"MullerLyer","correct_response":"arrowup","trial_type":"image-keyboard-response","trial_index":213,"time_elapsed":134928,"internal_node_id":"0.0-4.0-2.0-1.22","participant_id":"4ckeuxr7ku","prestimulus_duration":855,"correct":false,"type":"MullerLyer","illusion_strength":0,"illusion_difference":0.35407692307692307,"block_number":2,"trial_number":23},{"rt":null,"stimulus":"<div style=\"font-size:60px;\">+</div>","response":null,"screen":"fixation","trial_type":"html-keyboard-response","trial_index":214,"time_elapsed":135630,"internal_node_id":"0.0-4.0-2.0-0.23","participant_id":"4ckeuxr7ku","trial_duration":692},{"rt":541,"stimulus":"stimuli/MullerLyer_str0_diff0.048077.png","response":"arrowup","screen":"Trial","block":"MullerLyer","correct_response":"arrowup","trial_type":"image-keyboard-response","trial_index":215,"time_elapsed":136174,"internal_node_id":"0.0-4.0-2.0-1.23","participant_id":"4ckeuxr7ku","prestimulus_duration":702,"correct":true,"type":"MullerLyer","illusion_strength":0,"illusion_difference":0.04807692307692308,"block_number":2,"trial_number":24},{"rt":null,"stimulus":"<div style=\"font-size:60px;\">+</div>","response":null,"screen":"fixation","trial_type":"html-keyboard-response","trial_index":216,"time_elapsed":136915,"internal_node_id":"0.0-4.0-2.0-0.24","participant_id":"4ckeuxr7ku","trial_duration":726},{"rt":114,"stimulus":"stimuli/MullerLyer_str0_diff-0.401154.png","response":"arrowup","screen":"Trial","block":"MullerLyer","correct_response":"arrowdown","trial_type":"image-keyboard-response","trial_index":217,"time_elapsed":137031,"internal_node_id":"0.0-4.0-2.0-1.24","participant_id":"4ckeuxr7ku","prestimulus_duration":741,"correct":false,"type":"MullerLyer","illusion_strength":0,"illusion_difference":-0.4011538461538462,"block_number":2,"trial_number":25},{"rt":null,"stimulus":"<div style=\"font-size:60px;\">+</div>","response":null,"screen":"fixation","trial_type":"html-keyboard-response","trial_index":218,"time_elapsed":137623,"internal_node_id":"0.0-4.0-2.0-0.25","participant_id":"4ckeuxr7ku","trial_duration":589},{"rt":465,"stimulus":"stimuli/MullerLyer_str0_diff-0.059846.png","response":"arrowdown","screen":"Trial","block":"MullerLyer","correct_response":"arrowdown","trial_type":"image-keyboard-response","trial_index":219,"time_elapsed":138090,"internal_node_id":"0.0-4.0-2.0-1.25","participant_id":"4ckeuxr7ku","prestimulus_duration":592,"correct":true,"type":"MullerLyer","illusion_strength":0,"illusion_difference":-0.05984615384615385,"block_number":2,"trial_number":26},{"rt":null,"stimulus":"<div style=\"font-size:60px;\">+</div>","response":null,"screen":"fixation","trial_type":"html-keyboard-response","trial_index":220,"time_elapsed":138820,"internal_node_id":"0.0-4.0-2.0-0.26","participant_id":"4ckeuxr7ku","trial_duration":719},{"rt":338,"stimulus":"stimuli/MullerLyer_str0_diff0.071615.png","response":"arrowdown","screen":"Trial","block":"MullerLyer","correct_response":"arrowup","trial_type":"image-keyboard-response","trial_index":221,"time_elapsed":139160,"internal_node_id":"0.0-4.0-2.0-1.26","participant_id":"4ckeuxr7ku","prestimulus_duration":730,"correct":false,"type":"MullerLyer","illusion_strength":0,"illusion_difference":0.07161538461538462,"block_number":2,"trial_number":27},{"rt":null,"stimulus":"<div style=\"font-size:60px;\">+</div>","response":null,"screen":"fixation","trial_type":"html-keyboard-response","trial_index":222,"time_elapsed":139823,"internal_node_id":"0.0-4.0-2.0-0.27","participant_id":"4ckeuxr7ku","trial_duration":661},{"rt":185,"stimulus":"stimuli/MullerLyer_str0_diff-0.436462.png","response":"arrowup","screen":"Trial","block":"MullerLyer","correct_response":"arrowdown","trial_type":"image-keyboard-response","trial_index":223,"time_elapsed":140010,"internal_node_id":"0.0-4.0-2.0-1.27","participant_id":"4ckeuxr7ku","prestimulus_duration":663,"correct":false,"type":"MullerLyer","illusion_strength":0,"illusion_difference":-0.43646153846153846,"block_number":2,"trial_number":28},{"rt":null,"stimulus":"<div style=\"font-size:60px;\">+</div>","response":null,"screen":"fixation","trial_type":"html-keyboard-response","trial_index":224,"time_elapsed":140974,"internal_node_id":"0.0-4.0-2.0-0.28","participant_id":"4ckeuxr7ku","trial_duration":951},{"rt":90,"stimulus":"stimuli/MullerLyer_str0_diff-0.001.png","response":"arrowdown","screen":"Trial","block":"MullerLyer","correct_response":"arrowdown","trial_type":"image-keyboard-response","trial_index":225,"time_elapsed":141066,"internal_node_id":"0.0-4.0-2.0-1.28","participant_id":"4ckeuxr7ku","prestimulus_duration":964,"correct":true,"type":"MullerLyer","illusion_strength":0,"illusion_difference":-0.001,"block_number":2,"trial_number":29},{"rt":null,"stimulus":"<div style=\"font-size:60px;\">+</div>","response":null,"screen":"fixation","trial_type":"html-keyboard-response","trial_index":226,"time_elapsed":141903,"internal_node_id":"0.0-4.0-2.0-0.29","participant_id":"4ckeuxr7ku","trial_duration":820},{"rt":180,"stimulus":"stimuli/MullerLyer_str0_diff-0.389385.png","response":"arrowdown","screen":"Trial","block":"MullerLyer","correct_response":"arrowdown","trial_type":"image-keyboard-response","trial_index":227,"time_elapsed":142085,"internal_node_id":"0.0-4.0-2.0-1.29","participant_id":"4ckeuxr7ku","prestimulus_duration":837,"correct":true,"type":"MullerLyer","illusion_strength":0,"illusion_difference":-0.3893846153846154,"block_number":2,"trial_number":30},{"rt":null,"stimulus":"<div style=\"font-size:60px;\">+</div>","response":null,"screen":"fixation","trial_type":"html-keyboard-response","trial_index":228,"time_elapsed":142617,"internal_node_id":"0.0-4.0-2.0-0.30","participant_id":"4ckeuxr7ku","trial_duration":525},{"rt":323,"stimulus":"stimuli/MullerLyer_str0_diff0.330538.png","response":"arrowdown","screen":"Trial","block":"MullerLyer","correct_response":"arrowup","trial_type":"image-keyboard-response","trial_index":229,"time_elapsed":142941,"internal_node_id":"0.0-4.0-2.0-1.30","participant_id":"4ckeuxr7ku","prestimulus_duration":532,"correct":false,"type":"MullerLyer","illusion_strength":0,"illusion_difference":0.33053846153846156,"block_number":2,"trial_number":31},{"rt":null,"stimulus":"<div style=\"font-size:60px;\">+</div>","response":null,"screen":"fixation","trial_type":"html-keyboard-response","trial_index":230,"time_elapsed":143656,"internal_node_id":"0.0-4.0-2.0-0.31","participant_id":"4ckeuxr7ku","trial_duration":698},{"rt":325,"stimulus":"stimuli/MullerLyer_str0_diff0.177538.png","response":"arrowup","screen":"Trial","block":"MullerLyer","correct_response":"arrowup","trial_type":"image-keyboard-response","trial_index":231,"time_elapsed":144012,"internal_node_id":"0.0-4.0-2.0-1.31","participant_id":"4ckeuxr7ku","prestimulus_duration":715,"correct":true,"type":"MullerLyer","illusion_strength":0,"illusion_difference":0.17753846153846153,"block_number":2,"trial_number":32},{"rt":null,"stimulus":"<div style=\"font-size:60px;\">+</div>","response":null,"screen":"fixation","trial_type":"html-keyboard-response","trial_index":232,"time_elapsed":144900,"internal_node_id":"0.0-4.0-2.0-0.32","participant_id":"4ckeuxr7ku","trial_duration":881},{"rt":329,"stimulus":"stimuli/MullerLyer_str0_diff0.212846.png","response":"arrowup","screen":"Trial","block":"MullerLyer","correct_response":"arrowup","trial_type":"image-keyboard-response","trial_index":233,"time_elapsed":145230,"internal_node_id":"0.0-4.0-2.0-1.32","participant_id":"4ckeuxr7ku","prestimulus_duration":888,"correct":true,"type":"MullerLyer","illusion_strength":0,"illusion_difference":0.21284615384615385,"block_number":2,"trial_number":33},{"rt":null,"stimulus":"<div style=\"font-size:60px;\">+</div>","response":null,"screen":"fixation","trial_type":"html-keyboard-response","trial_index":234,"time_elapsed":146129,"internal_node_id":"0.0-4.0-2.0-0.33","participant_id":"4ckeuxr7ku","trial_duration":896},{"rt":347,"stimulus":"stimuli/MullerLyer_str0_diff0.448231.png","response":"arrowup","screen":"Trial","block":"MullerLyer","correct_response":"arrowup","trial_type":"image-keyboard-response","trial_index":235,"time_elapsed":146478,"internal_node_id":"0.0-4.0-2.0-1.33","participant_id":"4ckeuxr7ku","prestimulus_duration":899,"correct":true,"type":"MullerLyer","illusion_strength":0,"illusion_difference":0.44823076923076927,"block_number":2,"trial_number":34},{"rt":null,"stimulus":"<div style=\"font-size:60px;\">+</div>","response":null,"screen":"fixation","trial_type":"html-keyboard-response","trial_index":236,"time_elapsed":147491,"internal_node_id":"0.0-4.0-2.0-0.34","participant_id":"4ckeuxr7ku","trial_duration":999},{"rt":294,"stimulus":"stimuli/MullerLyer_str0_diff-0.248154.png","response":"arrowup","screen":"Trial","block":"MullerLyer","correct_response":"arrowdown","trial_type":"image-keyboard-response","trial_index":237,"time_elapsed":147788,"internal_node_id":"0.0-4.0-2.0-1.34","participant_id":"4ckeuxr7ku","prestimulus_duration":1013,"correct":false,"type":"MullerLyer","illusion_strength":0,"illusion_difference":-0.24815384615384617,"block_number":2,"trial_number":35},{"rt":null,"stimulus":"<div style=\"font-size:60px;\">+</div>","response":null,"screen":"fixation","trial_type":"html-keyboard-response","trial_index":238,"time_elapsed":148532,"internal_node_id":"0.0-4.0-2.0-0.35","participant_id":"4ckeuxr7ku","trial_duration":733},{"rt":325,"stimulus":"stimuli/MullerLyer_str0_diff-0.201077.png","response":"arrowdown","screen":"Trial","block":"MullerLyer","correct_response":"arrowdown","trial_type":"image-keyboard-response","trial_index":239,"time_elapsed":148859,"internal_node_id":"0.0-4.0-2.0-1.35","participant_id":"4ckeuxr7ku","prestimulus_duration":744,"correct":true,"type":"MullerLyer","illusion_strength":0,"illusion_difference":-0.2010769230769231,"block_number":2,"trial_number":36},{"rt":null,"stimulus":"<div style=\"font-size:60px;\">+</div>","response":null,"screen":"fixation","trial_type":"html-keyboard-response","trial_index":240,"time_elapsed":149505,"internal_node_id":"0.0-4.0-2.0-0.36","participant_id":"4ckeuxr7ku","trial_duration":633},{"rt":594,"stimulus":"stimuli/MullerLyer_str0_diff0.095154.png","response":"arrowup","screen":"Trial","block":"MullerLyer","correct_response":"arrowup","trial_type":"image-keyboard-response","trial_index":241,"time_elapsed":150101,"internal_node_id":"0.0-4.0-2.0-1.36","participant_id":"4ckeuxr7ku","prestimulus_duration":646,"correct":true,"type":"MullerLyer","illusion_strength":0,"illusion_difference":0.09515384615384616,"block_number":2,"trial_number":37},{"rt":null,"stimulus":"<div style=\"font-size:60px;\">+</div>","response":null,"screen":"fixation","trial_type":"html-keyboard-response","trial_index":242,"time_elapsed":150888,"internal_node_id":"0.0-4.0-2.0-0.37","participant_id":"4ckeuxr7ku","trial_duration":785},{"rt":317,"stimulus":"stimuli/MullerLyer_str0_diff-0.424692.png","response":"arrowdown","screen":"Trial","block":"MullerLyer","correct_response":"arrowdown","trial_type":"image-keyboard-response","trial_index":243,"time_elapsed":151207,"internal_node_id":"0.0-4.0-2.0-1.37","participant_id":"4ckeuxr7ku","prestimulus_duration":787,"correct":true,"type":"MullerLyer","illusion_strength":0,"illusion_difference":-0.4246923076923077,"block_number":2,"trial_number":38},{"rt":null,"stimulus":"<div style=\"font-size:60px;\">+</div>","response":null,"screen":"fixation","trial_type":"html-keyboard-response","trial_index":244,"time_elapsed":151870,"internal_node_id":"0.0-4.0-2.0-0.38","participant_id":"4ckeuxr7ku","trial_duration":651},{"rt":303,"stimulus":"stimuli/MullerLyer_str0_diff-0.283462.png","response":"arrowdown","screen":"Trial","block":"MullerLyer","correct_response":"arrowdown","trial_type":"image-keyboard-response","trial_index":245,"time_elapsed":152175,"internal_node_id":"0.0-4.0-2.0-1.38","participant_id":"4ckeuxr7ku","prestimulus_duration":663,"correct":true,"type":"MullerLyer","illusion_strength":0,"illusion_difference":-0.2834615384615385,"block_number":2,"trial_number":39},{"rt":null,"stimulus":"<div style=\"font-size:60px;\">+</div>","response":null,"screen":"fixation","trial_type":"html-keyboard-response","trial_index":246,"time_elapsed":153064,"internal_node_id":"0.0-4.0-2.0-0.39","participant_id":"4ckeuxr7ku","trial_duration":874},{"rt":255,"stimulus":"stimuli/MullerLyer_str0_diff0.307.png","response":"arrowdown","screen":"Trial","block":"MullerLyer","correct_response":"arrowup","trial_type":"image-keyboard-response","trial_index":247,"time_elapsed":153321,"internal_node_id":"0.0-4.0-2.0-1.39","participant_id":"4ckeuxr7ku","prestimulus_duration":889,"correct":false,"type":"MullerLyer","illusion_strength":0,"illusion_difference":0.307,"block_number":2,"trial_number":40},{"rt":null,"stimulus":"<div style=\"font-size:60px;\">+</div>","response":null,"screen":"fixation","trial_type":"html-keyboard-response","trial_index":248,"time_elapsed":153989,"internal_node_id":"0.0-4.0-2.0-0.40","participant_id":"4ckeuxr7ku","trial_duration":651},{"rt":341,"stimulus":"stimuli/MullerLyer_str0_diff-0.307.png","response":"arrowup","screen":"Trial","block":"MullerLyer","correct_response":"arrowdown","trial_type":"image-keyboard-response","trial_index":249,"time_elapsed":154332,"internal_node_id":"0.0-4.0-2.0-1.40","participant_id":"4ckeuxr7ku","prestimulus_duration":668,"correct":false,"type":"MullerLyer","illusion_strength":0,"illusion_difference":-0.307,"block_number":2,"trial_number":41},{"rt":null,"stimulus":"<div style=\"font-size:60px;\">+</div>","response":null,"screen":"fixation","trial_type":"html-keyboard-response","trial_index":250,"time_elapsed":155329,"internal_node_id":"0.0-4.0-2.0-0.41","participant_id":"4ckeuxr7ku","trial_duration":984},{"rt":236,"stimulus":"stimuli/MullerLyer_str0_diff-0.142231.png","response":"arrowdown","screen":"Trial","block":"MullerLyer","correct_response":"arrowdown","trial_type":"image-keyboard-response","trial_index":251,"time_elapsed":155566,"internal_node_id":"0.0-4.0-2.0-1.41","participant_id":"4ckeuxr7ku","prestimulus_duration":997,"correct":true,"type":"MullerLyer","illusion_strength":0,"illusion_difference":-0.14223076923076924,"block_number":2,"trial_number":42},{"rt":null,"stimulus":"<div style=\"font-size:60px;\">+</div>","response":null,"screen":"fixation","trial_type":"html-keyboard-response","trial_index":252,"time_elapsed":156073,"internal_node_id":"0.0-4.0-2.0-0.42","participant_id":"4ckeuxr7ku","trial_duration":503},{"rt":388,"stimulus":"stimuli/MullerLyer_str0_diff-0.024538.png","response":"arrowdown","screen":"Trial","block":"MullerLyer","correct_response":"arrowdown","trial_type":"image-keyboard-response","trial_index":253,"time_elapsed":156463,"internal_node_id":"0.0-4.0-2.0-1.42","participant_id":"4ckeuxr7ku","prestimulus_duration":507,"correct":true,"type":"MullerLyer","illusion_strength":0,"illusion_difference":-0.02453846153846154,"block_number":2,"trial_number":43},{"rt":null,"stimulus":"<div style=\"font-size:60px;\">+</div>","response":null,"screen":"fixation","trial_type":"html-keyboard-response","trial_index":254,"time_elapsed":157307,"internal_node_id":"0.0-4.0-2.0-0.43","participant_id":"4ckeuxr7ku","trial_duration":830},{"rt":487,"stimulus":"stimuli/MullerLyer_str0_diff0.283462.png","response":"arrowup","screen":"Trial","block":"MullerLyer","correct_response":"arrowup","trial_type":"image-keyboard-response","trial_index":255,"time_elapsed":157796,"internal_node_id":"0.0-4.0-2.0-1.43","participant_id":"4ckeuxr7ku","prestimulus_duration":844,"correct":true,"type":"MullerLyer","illusion_strength":0,"illusion_difference":0.2834615384615385,"block_number":2,"trial_number":44},{"rt":null,"stimulus":"<div style=\"font-size:60px;\">+</div>","response":null,"screen":"fixation","trial_type":"html-keyboard-response","trial_index":256,"time_elapsed":158396,"internal_node_id":"0.0-4.0-2.0-0.44","participant_id":"4ckeuxr7ku","trial_duration":595},{"rt":353,"stimulus":"stimuli/MullerLyer_str0_diff0.436462.png","response":"arrowup","screen":"Trial","block":"MullerLyer","correct_response":"arrowup","trial_type":"image-keyboard-response","trial_index":257,"time_elapsed":158751,"internal_node_id":"0.0-4.0-2.0-1.44","participant_id":"4ckeuxr7ku","prestimulus_duration":600,"correct":true,"type":"MullerLyer","illusion_strength":0,"illusion_difference":0.43646153846153846,"block_number":2,"trial_number":45},{"rt":null,"stimulus":"<div style=\"font-size:60px;\">+</div>","response":null,"screen":"fixation","trial_type":"html-keyboard-response","trial_index":258,"time_elapsed":159292,"internal_node_id":"0.0-4.0-2.0-0.45","participant_id":"4ckeuxr7ku","trial_duration":539},{"rt":407,"stimulus":"stimuli/MullerLyer_str0_diff-0.224615.png","response":"arrowdown","screen":"Trial","block":"MullerLyer","correct_response":"arrowdown","trial_type":"image-keyboard-response","trial_index":259,"time_elapsed":159701,"internal_node_id":"0.0-4.0-2.0-1.45","participant_id":"4ckeuxr7ku","prestimulus_duration":541,"correct":true,"type":"MullerLyer","illusion_strength":0,"illusion_difference":-0.22461538461538463,"block_number":2,"trial_number":46},{"rt":null,"stimulus":"<div style=\"font-size:60px;\">+</div>","response":null,"screen":"fixation","trial_type":"html-keyboard-response","trial_index":260,"time_elapsed":160568,"internal_node_id":"0.0-4.0-2.0-0.46","participant_id":"4ckeuxr7ku","trial_duration":858},{"rt":373,"stimulus":"stimuli/MullerLyer_str0_diff-0.330538.png","response":"arrowdown","screen":"Trial","block":"MullerLyer","correct_response":"arrowdown","trial_type":"image-keyboard-response","trial_index":261,"time_elapsed":160943,"internal_node_id":"0.0-4.0-2.0-1.46","participant_id":"4ckeuxr7ku","prestimulus_duration":867,"correct":true,"type":"MullerLyer","illusion_strength":0,"illusion_difference":-0.33053846153846156,"block_number":2,"trial_number":47},{"rt":null,"stimulus":"<div style=\"font-size:60px;\">+</div>","response":null,"screen":"fixation","trial_type":"html-keyboard-response","trial_index":262,"time_elapsed":161887,"internal_node_id":"0.0-4.0-2.0-0.47","participant_id":"4ckeuxr7ku","trial_duration":935},{"rt":343,"stimulus":"stimuli/MullerLyer_str0_diff0.001.png","response":"arrowdown","screen":"Trial","block":"MullerLyer","correct_response":"arrowup","trial_type":"image-keyboard-response","trial_index":263,"time_elapsed":162232,"internal_node_id":"0.0-4.0-2.0-1.47","participant_id":"4ckeuxr7ku","prestimulus_duration":944,"correct":false,"type":"MullerLyer","illusion_strength":0,"illusion_difference":0.001,"block_number":2,"trial_number":48},{"rt":null,"stimulus":"<div style=\"font-size:60px;\">+</div>","response":null,"screen":"fixation","trial_type":"html-keyboard-response","trial_index":264,"time_elapsed":163222,"internal_node_id":"0.0-4.0-2.0-0.48","participant_id":"4ckeuxr7ku","trial_duration":984},{"rt":352,"stimulus":"stimuli/MullerLyer_str0_diff0.130462.png","response":"arrowup","screen":"Trial","block":"MullerLyer","correct_response":"arrowup","trial_type":"image-keyboard-response","trial_index":265,"time_elapsed":163576,"internal_node_id":"0.0-4.0-2.0-1.48","participant_id":"4ckeuxr7ku","prestimulus_duration":990,"correct":true,"type":"MullerLyer","illusion_strength":0,"illusion_difference":0.13046153846153846,"block_number":2,"trial_number":49},{"rt":null,"stimulus":"<div style=\"font-size:60px;\">+</div>","response":null,"screen":"fixation","trial_type":"html-keyboard-response","trial_index":266,"time_elapsed":164341,"internal_node_id":"0.0-4.0-2.0-0.49","participant_id":"4ckeuxr7ku","trial_duration":753},{"rt":506,"stimulus":"stimuli/MullerLyer_str0_diff-0.154.png","response":"arrowdown","screen":"Trial","block":"MullerLyer","correct_response":"arrowdown","trial_type":"image-keyboard-response","trial_index":267,"time_elapsed":164849,"internal_node_id":"0.0-4.0-2.0-1.49","participant_id":"4ckeuxr7ku","prestimulus_duration":765,"correct":true,"type":"MullerLyer","illusion_strength":0,"illusion_difference":-0.154,"block_number":2,"trial_number":50},{"rt":null,"stimulus":"<div style=\"font-size:60px;\">+</div>","response":null,"screen":"fixation","trial_type":"html-keyboard-response","trial_index":268,"time_elapsed":165528,"internal_node_id":"0.0-4.0-2.0-0.50","participant_id":"4ckeuxr7ku","trial_duration":668},{"rt":383,"stimulus":"stimuli/MullerLyer_str0_diff-0.071615.png","response":"arrowup","screen":"Trial","block":"MullerLyer","correct_response":"arrowdown","trial_type":"image-keyboard-response","trial_index":269,"time_elapsed":165913,"internal_node_id":"0.0-4.0-2.0-1.50","participant_id":"4ckeuxr7ku","prestimulus_duration":679,"correct":false,"type":"MullerLyer","illusion_strength":0,"illusion_difference":-0.07161538461538462,"block_number":2,"trial_number":51},{"rt":null,"stimulus":"<div style=\"font-size:60px;\">+</div>","response":null,"screen":"fixation","trial_type":"html-keyboard-response","trial_index":270,"time_elapsed":166862,"internal_node_id":"0.0-4.0-2.0-0.51","participant_id":"4ckeuxr7ku","trial_duration":940},{"rt":501,"stimulus":"stimuli/MullerLyer_str0_diff0.365846.png","response":"arrowup","screen":"Trial","block":"MullerLyer","correct_response":"arrowup","trial_type":"image-keyboard-response","trial_index":271,"time_elapsed":167365,"internal_node_id":"0.0-4.0-2.0-1.51","participant_id":"4ckeuxr7ku","prestimulus_duration":949,"correct":true,"type":"MullerLyer","illusion_strength":0,"illusion_difference":0.3658461538461539,"block_number":2,"trial_number":52},{"rt":null,"stimulus":"<div style=\"font-size:60px;\">+</div>","response":null,"screen":"fixation","trial_type":"html-keyboard-response","trial_index":272,"time_elapsed":168274,"internal_node_id":"0.0-4.0-2.0-0.52","participant_id":"4ckeuxr7ku","trial_duration":896},{"rt":403,"stimulus":"stimuli/MullerLyer_str0_diff0.189308.png","response":"arrowup","screen":"Trial","block":"MullerLyer","correct_response":"arrowup","trial_type":"image-keyboard-response","trial_index":273,"time_elapsed":168679,"internal_node_id":"0.0-4.0-2.0-1.52","participant_id":"4ckeuxr7ku","prestimulus_duration":909,"correct":true,"type":"MullerLyer","illusion_strength":0,"illusion_difference":0.18930769230769232,"block_number":2,"trial_number":53},{"rt":null,"stimulus":"<div style=\"font-size:60px;\">+</div>","response":null,"screen":"fixation","trial_type":"html-keyboard-response","trial_index":274,"time_elapsed":169263,"internal_node_id":"0.0-4.0-2.0-0.53","participant_id":"4ckeuxr7ku","trial_duration":575},{"rt":429,"stimu