[{"success":true,"trial_type":"fullscreen","trial_index":0,"time_elapsed":4296,"internal_node_id":"0.0-0.0","participant_id":"3msdczge90"},{"success":true,"timeout":false,"failed_images":[],"failed_audio":[],"failed_video":[],"trial_type":"preload","trial_index":1,"time_elapsed":4867,"internal_node_id":"0.0-1.0","participant_id":"3msdczge90"},{"rt":2571,"stimulus":"<p><b>The Illusion Game</b></p><p>In this game of speed and reflex, you will need to make <b>visual judgments</b> of different targets (for instance, which circle is the biggest, or which line is the longest), as <b>quickly</b> and as <b>accurately</b> as possible.</p><p>It can be challenging at times, so you want to rely on your intuition and gut feeling to answer as fast as you can, without making errors.</p><p>A score will be computed based on your speed and accuracy and will be displayed after each block.</p><br><p>Don't worry, we will show you examples of each target before each block.</p><p>Remember, your goal is to be as <b>fast</b> and <b>accurate</b> as possible. Good luck!</p>","response":0,"screen":"general_instructions","trial_type":"html-button-response","trial_index":2,"time_elapsed":7440,"internal_node_id":"0.0-2.0","participant_id":"3msdczge90"},{"success":true,"timeout":false,"failed_images":[],"failed_audio":[],"failed_video":[],"trial_type":"preload","trial_index":3,"time_elapsed":7756,"internal_node_id":"0.0-3.0-0.0","participant_id":"3msdczge90"},{"rt":41049,"stimulus":"<p><b>Part 1</b></p><p>In this part, two red circles will appear side by side on the screen.</p><p>Your task is to select which <b>red circle is bigger</b> in size as fast as you can, without making errors.</p><p>Press <b>the LEFT or the RIGHT arrow</b> to indicate which is the bigger <b>red circle.</b></p><div style='float: center'><img src='utils/stimuli_demo/Delboeuf_Demo.png' height='300'></img><p><img src='utils/answer/answer_leftright_keyboard.PNG' height='150'></img></p><p class='small'>In this example, the correct answer is the <b>LEFT arrow</b>.</p></div><p>Are you ready? <b>Press ENTER to start</b></p>","response":"enter","trial_type":"html-keyboard-response","trial_index":4,"time_elapsed":48807,"internal_node_id":"0.0-3.0-1.0","participant_id":"3msdczge90"},{"rt":null,"stimulus":"<div style=\"font-size:60px;\">+</div>","response":null,"screen":"fixation","trial_type":"html-keyboard-response","trial_index":5,"time_elapsed":49819,"internal_node_id":"0.0-3.0-2.0-0.0","participant_id":"3msdczge90","trial_duration":510},{"rt":968,"stimulus":"stimuli/Delboeuf_str0_diff-0.194355.png","response":"arrowright","screen":"Trial","block":"Delboeuf","correct_response":"arrowright","trial_type":"image-keyboard-response","trial_index":6,"time_elapsed":50795,"internal_node_id":"0.0-3.0-2.0-1.0","participant_id":"3msdczge90","prestimulus_duration":1012,"correct":true,"type":"Delboeuf","illusion_strength":0,"illusion_difference":-0.1943548387096774,"block_number":1,"trial_number":1},{"rt":null,"stimulus":"<div style=\"font-size:60px;\">+</div>","response":null,"screen":"fixation","trial_type":"html-keyboard-response","trial_index":7,"time_elapsed":51330,"internal_node_id":"0.0-3.0-2.0-0.1","participant_id":"3msdczge90","trial_duration":527},{"rt":667,"stimulus":"stimuli/Delboeuf_str0_diff0.097677.png","response":"arrowleft","screen":"Trial","block":"Delboeuf","correct_response":"arrowleft","trial_type":"image-keyboard-response","trial_index":8,"time_elapsed":51998,"internal_node_id":"0.0-3.0-2.0-1.1","participant_id":"3msdczge90","prestimulus_duration":535,"correct":true,"type":"Delboeuf","illusion_strength":0,"illusion_difference":0.0976774193548387,"block_number":1,"trial_number":2},{"rt":null,"stimulus":"<div style=\"font-size:60px;\">+</div>","response":null,"screen":"fixation","trial_type":"html-keyboard-response","trial_index":9,"time_elapsed":52749,"internal_node_id":"0.0-3.0-2.0-0.2","participant_id":"3msdczge90","trial_duration":749},{"rt":354,"stimulus":"stimuli/Delboeuf_str0_diff-0.323258.png","response":"arrowright","screen":"Trial","block":"Delboeuf","correct_response":"arrowright","trial_type":"image-keyboard-response","trial_index":10,"time_elapsed":53106,"internal_node_id":"0.0-3.0-2.0-1.2","participant_id":"3msdczge90","prestimulus_duration":751,"correct":true,"type":"Delboeuf","illusion_strength":0,"illusion_difference":-0.32325806451612904,"block_number":1,"trial_number":3},{"rt":null,"stimulus":"<div style=\"font-size:60px;\">+</div>","response":null,"screen":"fixation","trial_type":"html-keyboard-response","trial_index":11,"time_elapsed":53924,"internal_node_id":"0.0-3.0-2.0-0.3","participant_id":"3msdczge90","trial_duration":813},{"rt":371,"stimulus":"stimuli/Delboeuf_str0_diff0.871097.png","response":"arrowleft","screen":"Trial","block":"Delboeuf","correct_response":"arrowleft","trial_type":"image-keyboard-response","trial_index":12,"time_elapsed":54298,"internal_node_id":"0.0-3.0-2.0-1.3","participant_id":"3msdczge90","prestimulus_duration":818,"correct":true,"type":"Delboeuf","illusion_strength":0,"illusion_difference":0.8710967741935484,"block_number":1,"trial_number":4},{"rt":null,"stimulus":"<div style=\"font-size:60px;\">+</div>","response":null,"screen":"fixation","trial_type":"html-keyboard-response","trial_index":13,"time_elapsed":55003,"internal_node_id":"0.0-3.0-2.0-0.4","participant_id":"3msdczge90","trial_duration":698},{"rt":414,"stimulus":"stimuli/Delboeuf_str0_diff0.258806.png","response":"arrowleft","screen":"Trial","block":"Delboeuf","correct_response":"arrowleft","trial_type":"image-keyboard-response","trial_index":14,"time_elapsed":55419,"internal_node_id":"0.0-3.0-2.0-1.4","participant_id":"3msdczge90","prestimulus_duration":705,"correct":true,"type":"Delboeuf","illusion_strength":0,"illusion_difference":0.2588064516129032,"block_number":1,"trial_number":5},{"rt":null,"stimulus":"<div style=\"font-size:60px;\">+</div>","response":null,"screen":"fixation","trial_type":"html-keyboard-response","trial_index":15,"time_elapsed":56024,"internal_node_id":"0.0-3.0-2.0-0.5","participant_id":"3msdczge90","trial_duration":602},{"rt":443,"stimulus":"stimuli/Delboeuf_str0_diff-0.129903.png","response":"arrowright","screen":"Trial","block":"Delboeuf","correct_response":"arrowright","trial_type":"image-keyboard-response","trial_index":16,"time_elapsed":56470,"internal_node_id":"0.0-3.0-2.0-1.5","participant_id":"3msdczge90","prestimulus_duration":605,"correct":true,"type":"Delboeuf","illusion_strength":0,"illusion_difference":-0.1299032258064516,"block_number":1,"trial_number":6},{"rt":null,"stimulus":"<div style=\"font-size:60px;\">+</div>","response":null,"screen":"fixation","trial_type":"html-keyboard-response","trial_index":17,"time_elapsed":57296,"internal_node_id":"0.0-3.0-2.0-0.6","participant_id":"3msdczge90","trial_duration":820},{"rt":322,"stimulus":"stimuli/Delboeuf_str0_diff0.516613.png","response":"arrowleft","screen":"Trial","block":"Delboeuf","correct_response":"arrowleft","trial_type":"image-keyboard-response","trial_index":18,"time_elapsed":57620,"internal_node_id":"0.0-3.0-2.0-1.6","participant_id":"3msdczge90","prestimulus_duration":826,"correct":true,"type":"Delboeuf","illusion_strength":0,"illusion_difference":0.5166129032258064,"block_number":1,"trial_number":7},{"rt":null,"stimulus":"<div style=\"font-size:60px;\">+</div>","response":null,"screen":"fixation","trial_type":"html-keyboard-response","trial_index":19,"time_elapsed":58467,"internal_node_id":"0.0-3.0-2.0-0.7","participant_id":"3msdczge90","trial_duration":840},{"rt":344,"stimulus":"stimuli/Delboeuf_str0_diff0.677742.png","response":"arrowleft","screen":"Trial","block":"Delboeuf","correct_response":"arrowleft","trial_type":"image-keyboard-response","trial_index":20,"time_elapsed":58814,"internal_node_id":"0.0-3.0-2.0-1.7","participant_id":"3msdczge90","prestimulus_duration":847,"correct":true,"type":"Delboeuf","illusion_strength":0,"illusion_difference":0.677741935483871,"block_number":1,"trial_number":8},{"rt":null,"stimulus":"<div style=\"font-size:60px;\">+</div>","response":null,"screen":"fixation","trial_type":"html-keyboard-response","trial_index":21,"time_elapsed":59476,"internal_node_id":"0.0-3.0-2.0-0.8","participant_id":"3msdczge90","trial_duration":656},{"rt":675,"stimulus":"stimuli/Delboeuf_str0_diff0.38771.png","response":"arrowleft","screen":"Trial","block":"Delboeuf","correct_response":"arrowleft","trial_type":"image-keyboard-response","trial_index":22,"time_elapsed":60154,"internal_node_id":"0.0-3.0-2.0-1.8","participant_id":"3msdczge90","prestimulus_duration":662,"correct":true,"type":"Delboeuf","illusion_strength":0,"illusion_difference":0.3877096774193548,"block_number":1,"trial_number":9},{"rt":null,"stimulus":"<div style=\"font-size:60px;\">+</div>","response":null,"screen":"fixation","trial_type":"html-keyboard-response","trial_index":23,"time_elapsed":61081,"internal_node_id":"0.0-3.0-2.0-0.9","participant_id":"3msdczge90","trial_duration":924},{"rt":437,"stimulus":"stimuli/Delboeuf_str0_diff-0.516613.png","response":"arrowright","screen":"Trial","block":"Delboeuf","correct_response":"arrowright","trial_type":"image-keyboard-response","trial_index":24,"time_elapsed":61521,"internal_node_id":"0.0-3.0-2.0-1.9","participant_id":"3msdczge90","prestimulus_duration":927,"correct":true,"type":"Delboeuf","illusion_strength":0,"illusion_difference":-0.5166129032258064,"block_number":1,"trial_number":10},{"rt":null,"stimulus":"<div style=\"font-size:60px;\">+</div>","response":null,"screen":"fixation","trial_type":"html-keyboard-response","trial_index":25,"time_elapsed":62156,"internal_node_id":"0.0-3.0-2.0-0.10","participant_id":"3msdczge90","trial_duration":629},{"rt":426,"stimulus":"stimuli/Delboeuf_str0_diff-0.162129.png","response":"arrowright","screen":"Trial","block":"Delboeuf","correct_response":"arrowright","trial_type":"image-keyboard-response","trial_index":26,"time_elapsed":62585,"internal_node_id":"0.0-3.0-2.0-1.10","participant_id":"3msdczge90","prestimulus_duration":635,"correct":true,"type":"Delboeuf","illusion_strength":0,"illusion_difference":-0.16212903225806452,"block_number":1,"trial_number":11},{"rt":null,"stimulus":"<div style=\"font-size:60px;\">+</div>","response":null,"screen":"fixation","trial_type":"html-keyboard-response","trial_index":27,"time_elapsed":63393,"internal_node_id":"0.0-3.0-2.0-0.11","participant_id":"3msdczge90","trial_duration":801},{"rt":420,"stimulus":"stimuli/Delboeuf_str0_diff0.162129.png","response":"arrowright","screen":"Trial","block":"Delboeuf","correct_response":"arrowleft","trial_type":"image-keyboard-response","trial_index":28,"time_elapsed":63814,"internal_node_id":"0.0-3.0-2.0-1.11","participant_id":"3msdczge90","prestimulus_duration":808,"correct":false,"type":"Delboeuf","illusion_strength":0,"illusion_difference":0.16212903225806452,"block_number":1,"trial_number":12},{"rt":null,"stimulus":"<div style=\"font-size:60px;\">+</div>","response":null,"screen":"fixation","trial_type":"html-keyboard-response","trial_index":29,"time_elapsed":64515,"internal_node_id":"0.0-3.0-2.0-0.12","participant_id":"3msdczge90","trial_duration":694},{"rt":354,"stimulus":"stimuli/Delboeuf_str0_diff0.967774.png","response":"arrowleft","screen":"Trial","block":"Delboeuf","correct_response":"arrowleft","trial_type":"image-keyboard-response","trial_index":30,"time_elapsed":64871,"internal_node_id":"0.0-3.0-2.0-1.12","participant_id":"3msdczge90","prestimulus_duration":701,"correct":true,"type":"Delboeuf","illusion_strength":0,"illusion_difference":0.9677741935483871,"block_number":1,"trial_number":13},{"rt":null,"stimulus":"<div style=\"font-size:60px;\">+</div>","response":null,"screen":"fixation","trial_type":"html-keyboard-response","trial_index":31,"time_elapsed":65740,"internal_node_id":"0.0-3.0-2.0-0.13","participant_id":"3msdczge90","trial_duration":862},{"rt":410,"stimulus":"stimuli/Delboeuf_str0_diff-0.806645.png","response":"arrowright","screen":"Trial","block":"Delboeuf","correct_response":"arrowright","trial_type":"image-keyboard-response","trial_index":32,"time_elapsed":66152,"internal_node_id":"0.0-3.0-2.0-1.13","participant_id":"3msdczge90","prestimulus_duration":869,"correct":true,"type":"Delboeuf","illusion_strength":0,"illusion_difference":-0.8066451612903226,"block_number":1,"trial_number":14},{"rt":null,"stimulus":"<div style=\"font-size:60px;\">+</div>","response":null,"screen":"fixation","trial_type":"html-keyboard-response","trial_index":33,"time_elapsed":66799,"internal_node_id":"0.0-3.0-2.0-0.14","participant_id":"3msdczge90","trial_duration":640},{"rt":402,"stimulus":"stimuli/Delboeuf_str0_diff-0.967774.png","response":"arrowright","screen":"Trial","block":"Delboeuf","correct_response":"arrowright","trial_type":"image-keyboard-response","trial_index":34,"time_elapsed":67204,"internal_node_id":"0.0-3.0-2.0-1.14","participant_id":"3msdczge90","prestimulus_duration":647,"correct":true,"type":"Delboeuf","illusion_strength":0,"illusion_difference":-0.9677741935483871,"block_number":1,"trial_number":15},{"rt":null,"stimulus":"<div style=\"font-size:60px;\">+</div>","response":null,"screen":"fixation","trial_type":"html-keyboard-response","trial_index":35,"time_elapsed":68163,"internal_node_id":"0.0-3.0-2.0-0.15","participant_id":"3msdczge90","trial_duration":956},{"rt":358,"stimulus":"stimuli/Delboeuf_str0_diff0.645516.png","response":"arrowleft","screen":"Trial","block":"Delboeuf","correct_response":"arrowleft","trial_type":"image-keyboard-response","trial_index":36,"time_elapsed":68524,"internal_node_id":"0.0-3.0-2.0-1.15","participant_id":"3msdczge90","prestimulus_duration":959,"correct":true,"type":"Delboeuf","illusion_strength":0,"illusion_difference":0.6455161290322581,"block_number":1,"trial_number":16},{"rt":null,"stimulus":"<div style=\"font-size:60px;\">+</div>","response":null,"screen":"fixation","trial_type":"html-keyboard-response","trial_index":37,"time_elapsed":69372,"internal_node_id":"0.0-3.0-2.0-0.16","participant_id":"3msdczge90","trial_duration":842},{"rt":372,"stimulus":"stimuli/Delboeuf_str0_diff-0.355484.png","response":"arrowright","screen":"Trial","block":"Delboeuf","correct_response":"arrowright","trial_type":"image-keyboard-response","trial_index":38,"time_elapsed":69747,"internal_node_id":"0.0-3.0-2.0-1.16","participant_id":"3msdczge90","prestimulus_duration":848,"correct":true,"type":"Delboeuf","illusion_strength":0,"illusion_difference":-0.3554838709677419,"block_number":1,"trial_number":17},{"rt":null,"stimulus":"<div style=\"font-size:60px;\">+</div>","response":null,"screen":"fixation","trial_type":"html-keyboard-response","trial_index":39,"time_elapsed":70366,"internal_node_id":"0.0-3.0-2.0-0.17","participant_id":"3msdczge90","trial_duration":613},{"rt":332,"stimulus":"stimuli/Delboeuf_str0_diff-0.097677.png","response":"arrowleft","screen":"Trial","block":"Delboeuf","correct_response":"arrowright","trial_type":"image-keyboard-response","trial_index":40,"time_elapsed":70701,"internal_node_id":"0.0-3.0-2.0-1.17","participant_id":"3msdczge90","prestimulus_duration":619,"correct":false,"type":"Delboeuf","illusion_strength":0,"illusion_difference":-0.0976774193548387,"block_number":1,"trial_number":18},{"rt":null,"stimulus":"<div style=\"font-size:60px;\">+</div>","response":null,"screen":"fixation","trial_type":"html-keyboard-response","trial_index":41,"time_elapsed":71307,"internal_node_id":"0.0-3.0-2.0-0.18","participant_id":"3msdczge90","trial_duration":600},{"rt":497,"stimulus":"stimuli/Delboeuf_str0_diff0.484387.png","response":"arrowleft","screen":"Trial","block":"Delboeuf","correct_response":"arrowleft","trial_type":"image-keyboard-response","trial_index":42,"time_elapsed":71807,"internal_node_id":"0.0-3.0-2.0-1.18","participant_id":"3msdczge90","prestimulus_duration":606,"correct":true,"type":"Delboeuf","illusion_strength":0,"illusion_difference":0.48438709677419356,"block_number":1,"trial_number":19},{"rt":null,"stimulus":"<div style=\"font-size:60px;\">+</div>","response":null,"screen":"fixation","trial_type":"html-keyboard-response","trial_index":43,"time_elapsed":72552,"internal_node_id":"0.0-3.0-2.0-0.19","participant_id":"3msdczge90","trial_duration":739},{"rt":427,"stimulus":"stimuli/Delboeuf_str0_diff-0.871097.png","response":"arrowright","screen":"Trial","block":"Delboeuf","correct_response":"arrowright","trial_type":"image-keyboard-response","trial_index":44,"time_elapsed":72981,"internal_node_id":"0.0-3.0-2.0-1.19","participant_id":"3msdczge90","prestimulus_duration":745,"correct":true,"type":"Delboeuf","illusion_strength":0,"illusion_difference":-0.8710967741935484,"block_number":1,"trial_number":20},{"rt":null,"stimulus":"<div style=\"font-size:60px;\">+</div>","response":null,"screen":"fixation","trial_type":"html-keyboard-response","trial_index":45,"time_elapsed":73514,"internal_node_id":"0.0-3.0-2.0-0.20","participant_id":"3msdczge90","trial_duration":527},{"rt":575,"stimulus":"stimuli/Delboeuf_str0_diff0.065452.png","response":"arrowleft","screen":"Trial","block":"Delboeuf","correct_response":"arrowleft","trial_type":"image-keyboard-response","trial_index":46,"time_elapsed":74091,"internal_node_id":"0.0-3.0-2.0-1.20","participant_id":"3msdczge90","prestimulus_duration":533,"correct":true,"type":"Delboeuf","illusion_strength":0,"illusion_difference":0.0654516129032258,"block_number":1,"trial_number":21},{"rt":null,"stimulus":"<div style=\"font-size:60px;\">+</div>","response":null,"screen":"fixation","trial_type":"html-keyboard-response","trial_index":47,"time_elapsed":74865,"internal_node_id":"0.0-3.0-2.0-0.21","participant_id":"3msdczge90","trial_duration":769},{"rt":381,"stimulus":"stimuli/Delboeuf_str0_diff0.355484.png","response":"arrowleft","screen":"Trial","block":"Delboeuf","correct_response":"arrowleft","trial_type":"image-keyboard-response","trial_index":48,"time_elapsed":75248,"internal_node_id":"0.0-3.0-2.0-1.21","participant_id":"3msdczge90","prestimulus_duration":774,"correct":true,"type":"Delboeuf","illusion_strength":0,"illusion_difference":0.3554838709677419,"block_number":1,"trial_number":22},{"rt":null,"stimulus":"<div style=\"font-size:60px;\">+</div>","response":null,"screen":"fixation","trial_type":"html-keyboard-response","trial_index":49,"time_elapsed":75968,"internal_node_id":"0.0-3.0-2.0-0.22","participant_id":"3msdczge90","trial_duration":713},{"rt":317,"stimulus":"stimuli/Delboeuf_str0_diff0.709968.png","response":"arrowleft","screen":"Trial","block":"Delboeuf","correct_response":"arrowleft","trial_type":"image-keyboard-response","trial_index":50,"time_elapsed":76287,"internal_node_id":"0.0-3.0-2.0-1.22","participant_id":"3msdczge90","prestimulus_duration":720,"correct":true,"type":"Delboeuf","illusion_strength":0,"illusion_difference":0.7099677419354838,"block_number":1,"trial_number":23},{"rt":null,"stimulus":"<div style=\"font-size:60px;\">+</div>","response":null,"screen":"fixation","trial_type":"html-keyboard-response","trial_index":51,"time_elapsed":77086,"internal_node_id":"0.0-3.0-2.0-0.23","participant_id":"3msdczge90","trial_duration":793},{"rt":454,"stimulus":"stimuli/Delboeuf_str0_diff-0.742194.png","response":"arrowright","screen":"Trial","block":"Delboeuf","correct_response":"arrowright","trial_type":"image-keyboard-response","trial_index":52,"time_elapsed":77543,"internal_node_id":"0.0-3.0-2.0-1.23","participant_id":"3msdczge90","prestimulus_duration":799,"correct":true,"type":"Delboeuf","illusion_strength":0,"illusion_difference":-0.7421935483870967,"block_number":1,"trial_number":24},{"rt":null,"stimulus":"<div style=\"font-size:60px;\">+</div>","response":null,"screen":"fixation","trial_type":"html-keyboard-response","trial_index":53,"time_elapsed":78271,"internal_node_id":"0.0-3.0-2.0-0.24","participant_id":"3msdczge90","trial_duration":726},{"rt":405,"stimulus":"stimuli/Delboeuf_str0_diff0.033226.png","response":"arrowleft","screen":"Trial","block":"Delboeuf","correct_response":"arrowleft","trial_type":"image-keyboard-response","trial_index":54,"time_elapsed":78679,"internal_node_id":"0.0-3.0-2.0-1.24","participant_id":"3msdczge90","prestimulus_duration":728,"correct":true,"type":"Delboeuf","illusion_strength":0,"illusion_difference":0.0332258064516129,"block_number":1,"trial_number":25},{"rt":null,"stimulus":"<div style=\"font-size:60px;\">+</div>","response":null,"screen":"fixation","trial_type":"html-keyboard-response","trial_index":55,"time_elapsed":79465,"internal_node_id":"0.0-3.0-2.0-0.25","participant_id":"3msdczge90","trial_duration":780},{"rt":439,"stimulus":"stimuli/Delboeuf_str0_diff0.903323.png","response":"arrowleft","screen":"Trial","block":"Delboeuf","correct_response":"arrowleft","trial_type":"image-keyboard-response","trial_index":56,"time_elapsed":79907,"internal_node_id":"0.0-3.0-2.0-1.25","participant_id":"3msdczge90","prestimulus_duration":786,"correct":true,"type":"Delboeuf","illusion_strength":0,"illusion_difference":0.9033225806451612,"block_number":1,"trial_number":26},{"rt":null,"stimulus":"<div style=\"font-size:60px;\">+</div>","response":null,"screen":"fixation","trial_type":"html-keyboard-response","trial_index":57,"time_elapsed":80644,"internal_node_id":"0.0-3.0-2.0-0.26","participant_id":"3msdczge90","trial_duration":730},{"rt":423,"stimulus":"stimuli/Delboeuf_str0_diff-0.548839.png","response":"arrowright","screen":"Trial","block":"Delboeuf","correct_response":"arrowright","trial_type":"image-keyboard-response","trial_index":58,"time_elapsed":81069,"internal_node_id":"0.0-3.0-2.0-1.26","participant_id":"3msdczge90","prestimulus_duration":737,"correct":true,"type":"Delboeuf","illusion_strength":0,"illusion_difference":-0.5488387096774193,"block_number":1,"trial_number":27},{"rt":null,"stimulus":"<div style=\"font-size:60px;\">+</div>","response":null,"screen":"fixation","trial_type":"html-keyboard-response","trial_index":59,"time_elapsed":81781,"internal_node_id":"0.0-3.0-2.0-0.27","participant_id":"3msdczge90","trial_duration":706},{"rt":434,"stimulus":"stimuli/Delboeuf_str0_diff-0.001.png","response":"arrowright","screen":"Trial","block":"Delboeuf","correct_response":"arrowright","trial_type":"image-keyboard-response","trial_index":60,"time_elapsed":82218,"internal_node_id":"0.0-3.0-2.0-1.27","participant_id":"3msdczge90","prestimulus_duration":712,"correct":true,"type":"Delboeuf","illusion_strength":0,"illusion_difference":-0.001,"block_number":1,"trial_number":28},{"rt":null,"stimulus":"<div style=\"font-size:60px;\">+</div>","response":null,"screen":"fixation","trial_type":"html-keyboard-response","trial_index":61,"time_elapsed":82831,"internal_node_id":"0.0-3.0-2.0-0.28","participant_id":"3msdczge90","trial_duration":607},{"rt":364,"stimulus":"stimuli/Delboeuf_str0_diff0.774419.png","response":"arrowleft","screen":"Trial","block":"Delboeuf","correct_response":"arrowleft","trial_type":"image-keyboard-response","trial_index":62,"time_elapsed":83198,"internal_node_id":"0.0-3.0-2.0-1.28","participant_id":"3msdczge90","prestimulus_duration":613,"correct":true,"type":"Delboeuf","illusion_strength":0,"illusion_difference":0.7744193548387096,"block_number":1,"trial_number":29},{"rt":null,"stimulus":"<div style=\"font-size:60px;\">+</div>","response":null,"screen":"fixation","trial_type":"html-keyboard-response","trial_index":63,"time_elapsed":84064,"internal_node_id":"0.0-3.0-2.0-0.29","participant_id":"3msdczge90","trial_duration":860},{"rt":386,"stimulus":"stimuli/Delboeuf_str0_diff-0.61329.png","response":"arrowright","screen":"Trial","block":"Delboeuf","correct_response":"arrowright","trial_type":"image-keyboard-response","trial_index":64,"time_elapsed":84453,"internal_node_id":"0.0-3.0-2.0-1.29","participant_id":"3msdczge90","prestimulus_duration":866,"correct":true,"type":"Delboeuf","illusion_strength":0,"illusion_difference":-0.6132903225806452,"block_number":1,"trial_number":30},{"rt":null,"stimulus":"<div style=\"font-size:60px;\">+</div>","response":null,"screen":"fixation","trial_type":"html-keyboard-response","trial_index":65,"time_elapsed":85301,"internal_node_id":"0.0-3.0-2.0-0.30","participant_id":"3msdczge90","trial_duration":842},{"rt":391,"stimulus":"stimuli/Delboeuf_str0_diff0.419935.png","response":"arrowleft","screen":"Trial","block":"Delboeuf","correct_response":"arrowleft","trial_type":"image-keyboard-response","trial_index":66,"time_elapsed":85693,"internal_node_id":"0.0-3.0-2.0-1.30","participant_id":"3msdczge90","prestimulus_duration":848,"correct":true,"type":"Delboeuf","illusion_strength":0,"illusion_difference":0.41993548387096774,"block_number":1,"trial_number":31},{"rt":null,"stimulus":"<div style=\"font-size:60px;\">+</div>","response":null,"screen":"fixation","trial_type":"html-keyboard-response","trial_index":67,"time_elapsed":86466,"internal_node_id":"0.0-3.0-2.0-0.31","participant_id":"3msdczge90","trial_duration":766},{"rt":353,"stimulus":"stimuli/Delboeuf_str0_diff0.742194.png","response":"arrowleft","screen":"Trial","block":"Delboeuf","correct_response":"arrowleft","trial_type":"image-keyboard-response","trial_index":68,"time_elapsed":86821,"internal_node_id":"0.0-3.0-2.0-1.31","participant_id":"3msdczge90","prestimulus_duration":773,"correct":true,"type":"Delboeuf","illusion_strength":0,"illusion_difference":0.7421935483870967,"block_number":1,"trial_number":32},{"rt":null,"stimulus":"<div style=\"font-size:60px;\">+</div>","response":null,"screen":"fixation","trial_type":"html-keyboard-response","trial_index":69,"time_elapsed":87533,"internal_node_id":"0.0-3.0-2.0-0.32","participant_id":"3msdczge90","trial_duration":706},{"rt":364,"stimulus":"stimuli/Delboeuf_str0_diff-0.419935.png","response":"arrowleft","screen":"Trial","block":"Delboeuf","correct_response":"arrowright","trial_type":"image-keyboard-response","trial_index":70,"time_elapsed":87907,"internal_node_id":"0.0-3.0-2.0-1.32","participant_id":"3msdczge90","prestimulus_duration":712,"correct":false,"type":"Delboeuf","illusion_strength":0,"illusion_difference":-0.41993548387096774,"block_number":1,"trial_number":33},{"rt":null,"stimulus":"<div style=\"font-size:60px;\">+</div>","response":null,"screen":"fixation","trial_type":"html-keyboard-response","trial_index":71,"time_elapsed":88802,"internal_node_id":"0.0-3.0-2.0-0.33","participant_id":"3msdczge90","trial_duration":888},{"rt":419,"stimulus":"stimuli/Delboeuf_str0_diff0.323258.png","response":"arrowleft","screen":"Trial","block":"Delboeuf","correct_response":"arrowleft","trial_type":"image-keyboard-response","trial_index":72,"time_elapsed":89223,"internal_node_id":"0.0-3.0-2.0-1.33","participant_id":"3msdczge90","prestimulus_duration":895,"correct":true,"type":"Delboeuf","illusion_strength":0,"illusion_difference":0.32325806451612904,"block_number":1,"trial_number":34},{"rt":null,"stimulus":"<div style=\"font-size:60px;\">+</div>","response":null,"screen":"fixation","trial_type":"html-keyboard-response","trial_index":73,"time_elapsed":89974,"internal_node_id":"0.0-3.0-2.0-0.34","participant_id":"3msdczge90","trial_duration":745},{"rt":451,"stimulus":"stimuli/Delboeuf_str0_diff-0.903323.png","response":"arrowright","screen":"Trial","block":"Delboeuf","correct_response":"arrowright","trial_type":"image-keyboard-response","trial_index":74,"time_elapsed":90427,"internal_node_id":"0.0-3.0-2.0-1.34","participant_id":"3msdczge90","prestimulus_duration":751,"correct":true,"type":"Delboeuf","illusion_strength":0,"illusion_difference":-0.9033225806451612,"block_number":1,"trial_number":35},{"rt":null,"stimulus":"<div style=\"font-size:60px;\">+</div>","response":null,"screen":"fixation","trial_type":"html-keyboard-response","trial_index":75,"time_elapsed":91360,"internal_node_id":"0.0-3.0-2.0-0.35","participant_id":"3msdczge90","trial_duration":930},{"rt":463,"stimulus":"stimuli/Delboeuf_str0_diff-0.452161.png","response":"arrowright","screen":"Trial","block":"Delboeuf","correct_response":"arrowright","trial_type":"image-keyboard-response","trial_index":76,"time_elapsed":91826,"internal_node_id":"0.0-3.0-2.0-1.35","participant_id":"3msdczge90","prestimulus_duration":933,"correct":true,"type":"Delboeuf","illusion_strength":0,"illusion_difference":-0.4521612903225806,"block_number":1,"trial_number":36},{"rt":null,"stimulus":"<div style=\"font-size:60px;\">+</div>","response":null,"screen":"fixation","trial_type":"html-keyboard-response","trial_index":77,"time_elapsed":92631,"internal_node_id":"0.0-3.0-2.0-0.36","participant_id":"3msdczge90","trial_duration":798},{"rt":432,"stimulus":"stimuli/Delboeuf_str0_diff-0.935548.png","response":"arrowright","screen":"Trial","block":"Delboeuf","correct_response":"arrowright","trial_type":"image-keyboard-response","trial_index":78,"time_elapsed":93065,"internal_node_id":"0.0-3.0-2.0-1.36","participant_id":"3msdczge90","prestimulus_duration":805,"correct":true,"type":"Delboeuf","illusion_strength":0,"illusion_difference":-0.9355483870967741,"block_number":1,"trial_number":37},{"rt":null,"stimulus":"<div style=\"font-size:60px;\">+</div>","response":null,"screen":"fixation","trial_type":"html-keyboard-response","trial_index":79,"time_elapsed":93835,"internal_node_id":"0.0-3.0-2.0-0.37","participant_id":"3msdczge90","trial_duration":764},{"rt":328,"stimulus":"stimuli/Delboeuf_str0_diff-0.033226.png","response":"arrowleft","screen":"Trial","block":"Delboeuf","correct_response":"arrowright","trial_type":"image-keyboard-response","trial_index":80,"time_elapsed":94164,"internal_node_id":"0.0-3.0-2.0-1.37","participant_id":"3msdczge90","prestimulus_duration":770,"correct":false,"type":"Delboeuf","illusion_strength":0,"illusion_difference":-0.0332258064516129,"block_number":1,"trial_number":38},{"rt":null,"stimulus":"<div style=\"font-size:60px;\">+</div>","response":null,"screen":"fixation","trial_type":"html-keyboard-response","trial_index":81,"time_elapsed":95030,"internal_node_id":"0.0-3.0-2.0-0.38","participant_id":"3msdczge90","trial_duration":859},{"rt":316,"stimulus":"stimuli/Delboeuf_str0_diff-0.709968.png","response":"arrowright","screen":"Trial","block":"Delboeuf","correct_response":"arrowright","trial_type":"image-keyboard-response","trial_index":82,"time_elapsed":95347,"internal_node_id":"0.0-3.0-2.0-1.38","participant_id":"3msdczge90","prestimulus_duration":866,"correct":true,"type":"Delboeuf","illusion_strength":0,"illusion_difference":-0.7099677419354838,"block_number":1,"trial_number":39},{"rt":null,"stimulus":"<div style=\"font-size:60px;\">+</div>","response":null,"screen":"fixation","trial_type":"html-keyboard-response","trial_index":83,"time_elapsed":95931,"internal_node_id":"0.0-3.0-2.0-0.39","participant_id":"3msdczge90","trial_duration":582},{"rt":326,"stimulus":"stimuli/Delboeuf_str0_diff-0.677742.png","response":"arrowright","screen":"Trial","block":"Delboeuf","correct_response":"arrowright","trial_type":"image-keyboard-response","trial_index":84,"time_elapsed":96260,"internal_node_id":"0.0-3.0-2.0-1.39","participant_id":"3msdczge90","prestimulus_duration":584,"correct":true,"type":"Delboeuf","illusion_strength":0,"illusion_difference":-0.677741935483871,"block_number":1,"trial_number":40},{"rt":null,"stimulus":"<div style=\"font-size:60px;\">+</div>","response":null,"screen":"fixation","trial_type":"html-keyboard-response","trial_index":85,"time_elapsed":96939,"internal_node_id":"0.0-3.0-2.0-0.40","participant_id":"3msdczge90","trial_duration":673},{"rt":458,"stimulus":"stimuli/Delboeuf_str0_diff-0.645516.png","response":"arrowright","screen":"Trial","block":"Delboeuf","correct_response":"arrowright","trial_type":"image-keyboard-response","trial_index":86,"time_elapsed":97400,"internal_node_id":"0.0-3.0-2.0-1.40","participant_id":"3msdczge90","prestimulus_duration":679,"correct":true,"type":"Delboeuf","illusion_strength":0,"illusion_difference":-0.6455161290322581,"block_number":1,"trial_number":41},{"rt":null,"stimulus":"<div style=\"font-size:60px;\">+</div>","response":null,"screen":"fixation","trial_type":"html-keyboard-response","trial_index":87,"time_elapsed":98373,"internal_node_id":"0.0-3.0-2.0-0.41","participant_id":"3msdczge90","trial_duration":971},{"rt":328,"stimulus":"stimuli/Delboeuf_str0_diff-0.291032.png","response":"arrowright","screen":"Trial","block":"Delboeuf","correct_response":"arrowright","trial_type":"image-keyboard-response","trial_index":88,"time_elapsed":98703,"internal_node_id":"0.0-3.0-2.0-1.41","participant_id":"3msdczge90","prestimulus_duration":973,"correct":true,"type":"Delboeuf","illusion_strength":0,"illusion_difference":-0.2910322580645161,"block_number":1,"trial_number":42},{"rt":null,"stimulus":"<div style=\"font-size:60px;\">+</div>","response":null,"screen":"fixation","trial_type":"html-keyboard-response","trial_index":89,"time_elapsed":99578,"internal_node_id":"0.0-3.0-2.0-0.42","participant_id":"3msdczge90","trial_duration":869},{"rt":368,"stimulus":"stimuli/Delboeuf_str0_diff-0.581065.png","response":"arrowright","screen":"Trial","block":"Delboeuf","correct_response":"arrowright","trial_type":"image-keyboard-response","trial_index":90,"time_elapsed":99948,"internal_node_id":"0.0-3.0-2.0-1.42","participant_id":"3msdczge90","prestimulus_duration":875,"correct":true,"type":"Delboeuf","illusion_strength":0,"illusion_difference":-0.5810645161290322,"block_number":1,"trial_number":43},{"rt":null,"stimulus":"<div style=\"font-size:60px;\">+</div>","response":null,"screen":"fixation","trial_type":"html-keyboard-response","trial_index":91,"time_elapsed":100661,"internal_node_id":"0.0-3.0-2.0-0.43","participant_id":"3msdczge90","trial_duration":706},{"rt":367,"stimulus":"stimuli/Delboeuf_str0_diff0.129903.png","response":"arrowright","screen":"Trial","block":"Delboeuf","correct_response":"arrowleft","trial_type":"image-keyboard-response","trial_index":92,"time_elapsed":101030,"internal_node_id":"0.0-3.0-2.0-1.43","participant_id":"3msdczge90","prestimulus_duration":713,"correct":false,"type":"Delboeuf","illusion_strength":0,"illusion_difference":0.1299032258064516,"block_number":1,"trial_number":44},{"rt":null,"stimulus":"<div style=\"font-size:60px;\">+</div>","response":null,"screen":"fixation","trial_type":"html-keyboard-response","trial_index":93,"time_elapsed":101716,"internal_node_id":"0.0-3.0-2.0-0.44","participant_id":"3msdczge90","trial_duration":679},{"rt":403,"stimulus":"stimuli/Delboeuf_str0_diff-0.838871.png","response":"arrowright","screen":"Trial","block":"Delboeuf","correct_response":"arrowright","trial_type":"image-keyboard-response","trial_index":94,"time_elapsed":102121,"internal_node_id":"0.0-3.0-2.0-1.44","participant_id":"3msdczge90","prestimulus_duration":686,"correct":true,"type":"Delboeuf","illusion_strength":0,"illusion_difference":-0.8388709677419355,"block_number":1,"trial_number":45},{"rt":null,"stimulus":"<div style=\"font-size:60px;\">+</div>","response":null,"screen":"fixation","trial_type":"html-keyboard-response","trial_index":95,"time_elapsed":102937,"internal_node_id":"0.0-3.0-2.0-0.45","participant_id":"3msdczge90","trial_duration":810},{"rt":393,"stimulus":"stimuli/Delboeuf_str0_diff0.548839.png","response":"arrowleft","screen":"Trial","block":"Delboeuf","correct_response":"arrowleft","trial_type":"image-keyboard-response","trial_index":96,"time_elapsed":103332,"internal_node_id":"0.0-3.0-2.0-1.45","participant_id":"3msdczge90","prestimulus_duration":816,"correct":true,"type":"Delboeuf","illusion_strength":0,"illusion_difference":0.5488387096774193,"block_number":1,"trial_number":46},{"rt":null,"stimulus":"<div style=\"font-size:60px;\">+</div>","response":null,"screen":"fixation","trial_type":"html-keyboard-response","trial_index":97,"time_elapsed":103885,"internal_node_id":"0.0-3.0-2.0-0.46","participant_id":"3msdczge90","trial_duration":547},{"rt":399,"stimulus":"stimuli/Delboeuf_str0_diff0.226581.png","response":"arrowleft","screen":"Trial","block":"Delboeuf","correct_response":"arrowleft","trial_type":"image-keyboard-response","trial_index":98,"time_elapsed":104294,"internal_node_id":"0.0-3.0-2.0-1.46","participant_id":"3msdczge90","prestimulus_duration":553,"correct":true,"type":"Delboeuf","illusion_strength":0,"illusion_difference":0.2265806451612903,"block_number":1,"trial_number":47},{"rt":null,"stimulus":"<div style=\"font-size:60px;\">+</div>","response":null,"screen":"fixation","trial_type":"html-keyboard-response","trial_index":99,"time_elapsed":105076,"internal_node_id":"0.0-3.0-2.0-0.47","participant_id":"3msdczge90","trial_duration":776},{"rt":2446,"stimulus":"stimuli/Delboeuf_str0_diff0.001.png","response":"arrowleft","screen":"Trial","block":"Delboeuf","correct_response":"arrowleft","trial_type":"image-keyboard-response","trial_index":100,"time_elapsed":107524,"internal_node_id":"0.0-3.0-2.0-1.47","participant_id":"3msdczge90","prestimulus_duration":782,"correct":true,"type":"Delboeuf","illusion_strength":0,"illusion_difference":0.001,"block_number":1,"trial_number":48},{"rt":null,"stimulus":"<div style=\"font-size:60px;\">+</div>","response":null,"screen":"fixation","trial_type":"html-keyboard-response","trial_index":101,"time_elapsed":108268,"internal_node_id":"0.0-3.0-2.0-0.48","participant_id":"3msdczge90","trial_duration":741},{"rt":513,"stimulus":"stimuli/Delboeuf_str0_diff-0.065452.png","response":"arrowright","screen":"Trial","block":"Delboeuf","correct_response":"arrowright","trial_type":"image-keyboard-response","trial_index":102,"time_elapsed":108783,"internal_node_id":"0.0-3.0-2.0-1.48","participant_id":"3msdczge90","prestimulus_duration":744,"correct":true,"type":"Delboeuf","illusion_strength":0,"illusion_difference":-0.0654516129032258,"block_number":1,"trial_number":49},{"rt":null,"stimulus":"<div style=\"font-size:60px;\">+</div>","response":null,"screen":"fixation","trial_type":"html-keyboard-response","trial_index":103,"time_elapsed":109502,"internal_node_id":"0.0-3.0-2.0-0.49","participant_id":"3msdczge90","trial_duration":713},{"rt":409,"stimulus":"stimuli/Delboeuf_str0_diff-0.484387.png","response":"arrowright","screen":"Trial","block":"Delboeuf","correct_response":"arrowright","trial_type":"image-keyboard-response","trial_index":104,"time_elapsed":109914,"internal_node_id":"0.0-3.0-2.0-1.49","participant_id":"3msdczge90","prestimulus_duration":719,"correct":true,"type":"Delboeuf","illusion_strength":0,"illusion_difference":-0.48438709677419356,"block_number":1,"trial_number":50},{"rt":null,"stimulus":"<div style=\"font-size:60px;\">+</div>","response":null,"screen":"fixation","trial_type":"html-keyboard-response","trial_index":105,"time_elapsed":110519,"internal_node_id":"0.0-3.0-2.0-0.50","participant_id":"3msdczge90","trial_duration":599},{"rt":335,"stimulus":"stimuli/Delboeuf_str0_diff-0.774419.png","response":"arrowright","screen":"Trial","block":"Delboeuf","correct_response":"arrowright","trial_type":"image-keyboard-response","trial_index":106,"time_elapsed":110857,"internal_node_id":"0.0-3.0-2.0-1.50","participant_id":"3msdczge90","prestimulus_duration":605,"correct":true,"type":"Delboeuf","illusion_strength":0,"illusion_difference":-0.7744193548387096,"block_number":1,"trial_number":51},{"rt":null,"stimulus":"<div style=\"font-size:60px;\">+</div>","response":null,"screen":"fixation","trial_type":"html-keyboard-response","trial_index":107,"time_elapsed":111860,"internal_node_id":"0.0-3.0-2.0-0.51","participant_id":"3msdczge90","trial_duration":999},{"rt":421,"stimulus":"stimuli/Delboeuf_str0_diff0.838871.png","response":"arrowleft","screen":"Trial","block":"Delboeuf","correct_response":"arrowleft","trial_type":"image-keyboard-response","trial_index":108,"time_elapsed":112283,"internal_node_id":"0.0-3.0-2.0-1.51","participant_id":"3msdczge90","prestimulus_duration":1003,"correct":true,"type":"Delboeuf","illusion_strength":0,"illusion_difference":0.8388709677419355,"block_number":1,"trial_number":52},{"rt":null,"stimulus":"<div style=\"font-size:60px;\">+</div>","response":null,"screen":"fixation","trial_type":"html-keyboard-response","trial_index":109,"time_elapsed":112970,"internal_node_id":"0.0-3.0-2.0-0.52","participant_id":"3msdczge90","trial_duration":684},{"rt":297,"stimulus":"stimuli/Delboeuf_str0_diff1.0.png","response":"arrowleft","screen":"Trial","block":"Delboeuf","correct_response":"arrowleft","trial_type":"image-keyboard-response","trial_index":110,"time_elapsed":113270,"internal_node_id":"0.0-3.0-2.0-1.52","participant_id":"3msdczge90","prestimulus_duration":687,"correct":true,"type":"Delboeuf","illusion_strength":0,"illusion_difference":1,"block_number":1,"trial_number":53},{"rt":null,"stimulus":"<div style=\"font-size:60px;\">+</div>","response":null,"screen":"fixation","trial_type":"html-keyboard-response","trial_index":111,"time_elapsed":113884,"internal_node_id":"0.0-3.0-2.0-0.53","participant_id":"3msdczge90","trial_duration":608},{"rt":418,"stimulus":"stimuli/Delboeuf_str0_diff0.581065.png","response":"arrowleft","screen":"Trial","block":"Delboeuf","correct_response":"arrowleft","trial_type":"image-keyboard-response","trial_index":112,"time_elapsed":114305,"internal_node_id":"0.0-3.0-2.0-1.53","participant_id":"3msdczge90","prestimulus_duration":614,"correct":true,"type":"Delboeuf","illusion_strength":0,"illusion_difference":0.5810645161290322,"block_number":1,"trial_number":54},{"rt":null,"stimulus":"<div style=\"font-size:60px;\">+</div>","response":null,"screen":"fixation","trial_type":"html-keyboard-response","trial_index":113,"time_elapsed":115133,"internal_node_id":"0.0-3.0-2.0-0.54","participant_id":"3msdczge90","trial_duration":827},{"rt":372,"stimulus":"stimuli/Delboeuf_str0_diff-1.0.png","response":"arrowright","screen":"Trial","block":"Delboeuf","correct_response":"arrowright","trial_type":"image-keyboard-response","trial_index":114,"time_elapsed":115507,"internal_node_id":"0.0-3.0-2.0-1.54","participant_id":"3msdczge90","prestimulus_duration":828,"correct":true,"type":"Delboeuf","illusion_strength":0,"illusion_difference":-1,"block_number":1,"trial_number":55},{"rt":null,"stimulus":"<div style=\"font-size:60px;\">+</div>","response":null,"screen":"fixation","trial_type":"html-keyboard-response","trial_index":115,"time_elapsed":116291,"internal_node_id":"0.0-3.0-2.0-0.55","participant_id":"3msdczge90","trial_duration":778},{"rt":502,"stimulus":"stimuli/Delboeuf_str0_diff-0.38771.png","response":"arrowright","screen":"Trial","block":"Delboeuf","correct_response":"arrowright","trial_type":"image-keyboard-response","trial_index":116,"time_elapsed":116795,"internal_node_id":"0.0-3.0-2.0-1.55","participant_id":"3msdczge90","prestimulus_duration":784,"correct":true,"type":"Delboeuf","illusion_strength":0,"illusion_difference":-0.3877096774193548,"block_number":1,"trial_number":56},{"rt":null,"stimulus":"<div style=\"font-size:60px;\">+</div>","response":null,"screen":"fixation","trial_type":"html-keyboard-response","trial_index":117,"time_elapsed":117790,"internal_node_id":"0.0-3.0-2.0-0.56","participant_id":"3msdczge90","trial_duration":989},{"rt":310,"stimulus":"stimuli/Delboeuf_str0_diff0.452161.png","response":"arrowright","screen":"Trial","block":"Delboeuf","correct_response":"arrowleft","trial_type":"image-keyboard-response","trial_index":118,"time_elapsed":118102,"internal_node_id":"0.0-3.0-2.0-1.56","participant_id":"3msdczge90","prestimulus_duration":995,"correct":false,"type":"Delboeuf","illusion_strength":0,"illusion_difference":0.4521612903225806,"block_number":1,"trial_number":57},{"rt":null,"stimulus":"<div style=\"font-size:60px;\">+</div>","response":null,"screen":"fixation","trial_type":"html-keyboard-response","trial_index":119,"time_elapsed":119095,"internal_node_id":"0.0-3.0-2.0-0.57","participant_id":"3msdczge90","trial_duration":987},{"rt":415,"stimulus":"stimuli/Delboeuf_str0_diff0.806645.png","response":"arrowleft","screen":"Trial","block":"Delboeuf","correct_response":"arrowleft","trial_type":"image-keyboard-response","trial_index":120,"time_elapsed":119512,"internal_node_id":"0.0-3.0-2.0-1.57","participant_id":"3msdczge90","prestimulus_duration":993,"correct":true,"type":"Delboeuf","illusion_strength":0,"illusion_difference":0.8066451612903226,"block_number":1,"trial_number":58},{"rt":null,"stimulus":"<div style=\"font-size:60px;\">+</div>","response":null,"screen":"fixation","trial_type":"html-keyboard-response","trial_index":121,"time_elapsed":120437,"internal_node_id":"0.0-3.0-2.0-0.58","participant_id":"3msdczge90","trial_duration":918},{"rt":625,"stimulus":"stimuli/Delboeuf_str0_diff-0.226581.png","response":"arrowright","screen":"Trial","block":"Delboeuf","correct_response":"arrowright","trial_type":"image-keyboard-response","trial_index":122,"time_elapsed":121064,"internal_node_id":"0.0-3.0-2.0-1.58","participant_id":"3msdczge90","prestimulus_duration":925,"correct":true,"type":"Delboeuf","illusion_strength":0,"illusion_difference":-0.2265806451612903,"block_number":1,"trial_number":59},{"rt":null,"stimulus":"<div style=\"font-size:60px;\">+</div>","response":null,"screen":"fixation","trial_type":"html-keyboard-response","trial_index":123,"time_elapsed":122055,"internal_node_id":"0.0-3.0-2.0-0.59","participant_id":"3msdczge90","trial_duration":985},{"rt":428,"stimulus":"stimuli/Delboeuf_str0_diff0.291032.png","response":"arrowleft","screen":"Trial","block":"Delboeuf","correct_response":"arrowleft","trial_type":"image-keyboard-response","trial_index":124,"time_elapsed":122485,"internal_node_id":"0.0-3.0-2.0-1.59","participant_id":"3msdczge90","prestimulus_duration":991,"correct":true,"type":"Delboeuf","illusion_strength":0,"illusion_difference":0.2910322580645161,"block_number":1,"trial_number":60},{"rt":null,"stimulus":"<div style=\"font-size:60px;\">+</div>","response":null,"screen":"fixation","trial_type":"html-keyboard-response","trial_index":125,"time_elapsed":123460,"internal_node_id":"0.0-3.0-2.0-0.60","participant_id":"3msdczge90","trial_duration":968},{"rt":366,"stimulus":"stimuli/Delboeuf_str0_diff0.61329.png","response":"arrowleft","screen":"Trial","block":"Delboeuf","correct_response":"arrowleft","trial_type":"image-keyboard-response","trial_index":126,"time_elapsed":123827,"internal_node_id":"0.0-3.0-2.0-1.60","participant_id":"3msdczge90","prestimulus_duration":975,"correct":true,"type":"Delboeuf","illusion_strength":0,"illusion_difference":0.6132903225806452,"block_number":1,"trial_number":61},{"rt":null,"stimulus":"<div style=\"font-size:60px;\">+</div>","response":null,"screen":"fixation","trial_type":"html-keyboard-response","trial_index":127,"time_elapsed":124471,"internal_node_id":"0.0-3.0-2.0-0.61","participant_id":"3msdczge90","trial_duration":636},{"rt":364,"stimulus":"stimuli/Delboeuf_str0_diff-0.258806.png","response":"arrowleft","screen":"Trial","block":"Delboeuf","correct_response":"arrowright","trial_type":"image-keyboard-response","trial_index":128,"time_elapsed":124838,"internal_node_id":"0.0-3.0-2.0-1.61","participant_id":"3msdczge90","prestimulus_duration":644,"correct":false,"type":"Delboeuf","illusion_strength":0,"illusion_difference":-0.2588064516129032,"block_number":1,"trial_number":62},{"rt":null,"stimulus":"<div style=\"font-size:60px;\">+</div>","response":null,"screen":"fixation","trial_type":"html-keyboard-response","trial_index":129,"time_elapsed":125658,"internal_node_id":"0.0-3.0-2.0-0.62","participant_id":"3msdczge90","trial_duration":815},{"rt":446,"stimulus":"stimuli/Delboeuf_str0_diff0.935548.png","response":"arrowleft","screen":"Trial","block":"Delboeuf","correct_response":"arrowleft","trial_type":"image-keyboard-response","trial_index":130,"time_elapsed":126107,"internal_node_id":"0.0-3.0-2.0-1.62","participant_id":"3msdczge90","prestimulus_duration":820,"correct":true,"type":"Delboeuf","illusion_strength":0,"illusion_difference":0.9355483870967741,"block_number":1,"trial_number":63},{"rt":null,"stimulus":"<div style=\"font-size:60px;\">+</div>","response":null,"screen":"fixation","trial_type":"html-keyboard-response","trial_index":131,"time_elapsed":126672,"internal_node_id":"0.0-3.0-2.0-0.63","participant_id":"3msdczge90","trial_duration":558},{"rt":646,"stimulus":"stimuli/Delboeuf_str0_diff0.194355.png","response":"arrowleft","screen":"Trial","block":"Delboeuf","correct_response":"arrowleft","trial_type":"image-keyboard-response","trial_index":132,"time_elapsed":127322,"internal_node_id":"0.0-3.0-2.0-1.63","participant_id":"3msdczge90","prestimulus_duration":565,"correct":true,"type":"Delboeuf","illusion_strength":0,"illusion_difference":0.1943548387096774,"block_number":1,"trial_number":64},{"rt":7668,"stimulus":"<p>Your score for this illusion is <p style=\"color: black; font-size: 48px; font-weight: bold;\">90</p><hr><p>Can you do better in the next block?</p>","response":0,"screen":"block_results","trial_type":"html-button-response","trial_index":133,"time_elapsed":135007,"internal_node_id":"0.0-3.0-3.0","participant_id":"3msdczge90"},{"success":true,"timeout":false,"failed_images":[],"failed_audio":[],"failed_video":[],"trial_type":"preload","trial_index":134,"time_elapsed":136019,"internal_node_id":"0.0-4.0-0.0","participant_id":"3msdczge90"},{"rt":5549,"stimulus":"<p><b>Part 2</b></p><p>In this part, two horizontal red lines will appear one above the other.</p><p>Your task is to select which <b>line is longer</b> in length as fast as you can, without making errors.</p><p>Press <b>the UP or the DOWN arrow</b> to indicate where is the longer <b>red line.</b></p><div style='float: center'><img src='utils/stimuli_demo/MullerLyer_Demo.png' height='300'></img><p><img src='utils/answer/answer_updown_keyboard.PNG' height='150'></img></p><p class='small'>In this example, the correct answer is the <b>UP arrow</b>.</p></div><p>Are you ready? <b>Press ENTER to start</b></p>","response":"enter","trial_type":"html-keyboard-response","trial_index":135,"time_elapsed":141574,"internal_node_id":"0.0-4.0-1.0","participant_id":"3msdczge90"},{"rt":null,"stimulus":"<div style=\"font-size:60px;\">+</div>","response":null,"screen":"fixation","trial_type":"html-keyboard-response","trial_index":136,"time_elapsed":142614,"internal_node_id":"0.0-4.0-2.0-0.0","participant_id":"3msdczge90","trial_duration":529},{"rt":5082,"stimulus":"stimuli/MullerLyer_str0_diff0.20829.png","response":"arrowup","screen":"Trial","block":"MullerLyer","correct_response":"arrowup","trial_type":"image-keyboard-response","trial_index":137,"time_elapsed":147700,"internal_node_id":"0.0-4.0-2.0-1.0","participant_id":"3msdczge90","prestimulus_duration":1040,"correct":true,"type":"MullerLyer","illusion_strength":0,"illusion_difference":0.20829032258064517,"block_number":2,"trial_number":1},{"rt":null,"stimulus":"<div style=\"font-size:60px;\">+</div>","response":null,"screen":"fixation","trial_type":"html-keyboard-response","trial_index":138,"time_elapsed":148487,"internal_node_id":"0.0-4.0-2.0-0.1","participant_id":"3msdczge90","trial_duration":779},{"rt":649,"stimulus":"stimuli/MullerLyer_str0_diff-0.46.png","response":"arrowdown","screen":"Trial","block":"MullerLyer","correct_response":"arrowdown","trial_type":"image-keyboard-response","trial_index":139,"time_elapsed":149138,"internal_node_id":"0.0-4.0-2.0-1.1","participant_id":"3msdczge90","prestimulus_duration":787,"correct":true,"type":"MullerLyer","illusion_strength":0,"illusion_difference":-0.46,"block_number":2,"trial_number":2},{"rt":null,"stimulus":"<div style=\"font-size:60px;\">+</div>","response":null,"screen":"fixation","trial_type":"html-keyboard-response","trial_index":140,"time_elapsed":149985,"internal_node_id":"0.0-4.0-2.0-0.2","participant_id":"3msdczge90","trial_duration":840},{"rt":502,"stimulus":"stimuli/MullerLyer_str0_diff0.430387.png","response":"arrowup","screen":"Trial","block":"MullerLyer","correct_response":"arrowup","trial_type":"image-keyboard-response","trial_index":141,"time_elapsed":150489,"internal_node_id":"0.0-4.0-2.0-1.2","participant_id":"3msdczge90","prestimulus_duration":847,"correct":true,"type":"MullerLyer","illusion_strength":0,"illusion_difference":0.43038709677419357,"block_number":2,"trial_number":3},{"rt":null,"stimulus":"<div style=\"font-size:60px;\">+</div>","response":null,"screen":"fixation","trial_type":"html-keyboard-response","trial_index":142,"time_elapsed":151048,"internal_node_id":"0.0-4.0-2.0-0.3","participant_id":"3msdczge90","trial_duration":552},{"rt":564,"stimulus":"stimuli/MullerLyer_str0_diff-0.311935.png","response":"arrowdown","screen":"Trial","block":"MullerLyer","correct_response":"arrowdown","trial_type":"image-keyboard-response","trial_index":143,"time_elapsed":151614,"internal_node_id":"0.0-4.0-2.0-1.3","participant_id":"3msdczge90","prestimulus_duration":559,"correct":true,"type":"MullerLyer","illusion_strength":0,"illusion_difference":-0.31193548387096776,"block_number":2,"trial_number":4},{"rt":null,"stimulus":"<div style=\"font-size:60px;\">+</div>","response":null,"screen":"fixation","trial_type":"html-keyboard-response","trial_index":144,"time_elapsed":152530,"internal_node_id":"0.0-4.0-2.0-0.4","participant_id":"3msdczge90","trial_duration":909},{"rt":866,"stimulus":"stimuli/MullerLyer_str0_diff0.060226.png","response":"arrowup","screen":"Trial","block":"MullerLyer","correct_response":"arrowup","trial_type":"image-keyboard-response","trial_index":145,"time_elapsed":153398,"internal_node_id":"0.0-4.0-2.0-1.4","participant_id":"3msdczge90","prestimulus_duration":916,"correct":true,"type":"MullerLyer","illusion_strength":0,"illusion_difference":0.06022580645161291,"block_number":2,"trial_number":5},{"rt":null,"stimulus":"<div style=\"font-size:60px;\">+</div>","response":null,"screen":"fixation","trial_type":"html-keyboard-response","trial_index":146,"time_elapsed":154404,"internal_node_id":"0.0-4.0-2.0-0.5","participant_id":"3msdczge90","trial_duration":999},{"rt":618,"stimulus":"stimuli/MullerLyer_str0_diff0.237903.png","response":"arrowup","screen":"Trial","block":"MullerLyer","correct_response":"arrowup","trial_type":"image-keyboard-response","trial_index":147,"time_elapsed":155024,"internal_node_id":"0.0-4.0-2.0-1.5","participant_id":"3msdczge90","prestimulus_duration":1006,"correct":true,"type":"MullerLyer","illusion_strength":0,"illusion_difference":0.23790322580645162,"block_number":2,"trial_number":6},{"rt":null,"stimulus":"<div style=\"font-size:60px;\">+</div>","response":null,"screen":"fixation","trial_type":"html-keyboard-response","trial_index":148,"time_elapsed":156008,"internal_node_id":"0.0-4.0-2.0-0.6","participant_id":"3msdczge90","trial_duration":977},{"rt":473,"stimulus":"stimuli/MullerLyer_str0_diff-0.326742.png","response":"arrowdown","screen":"Trial","block":"MullerLyer","correct_response":"arrowdown","trial_type":"image-keyboard-response","trial_index":149,"time_elapsed":156483,"internal_node_id":"0.0-4.0-2.0-1.6","participant_id":"3msdczge90","prestimulus_duration":984,"correct":true,"type":"MullerLyer","illusion_strength":0,"illusion_difference":-0.326741935483871,"block_number":2,"trial_number":7},{"rt":null,"stimulus":"<div style=\"font-size:60px;\">+</div>","response":null,"screen":"fixation","trial_type":"html-keyboard-response","trial_index":150,"time_elapsed":157461,"internal_node_id":"0.0-4.0-2.0-0.7","participant_id":"3msdczge90","trial_duration":971},{"rt":602,"stimulus":"stimuli/MullerLyer_str0_diff0.385968.png","response":"arrowup","screen":"Trial","block":"MullerLyer","correct_response":"arrowup","trial_type":"image-keyboard-response","trial_index":151,"time_elapsed":158065,"internal_node_id":"0.0-4.0-2.0-1.7","participant_id":"3msdczge90","prestimulus_duration":978,"correct":true,"type":"MullerLyer","illusion_strength":0,"illusion_difference":0.3859677419354839,"block_number":2,"trial_number":8},{"rt":null,"stimulus":"<div style=\"font-size:60px;\">+</div>","response":null,"screen":"fixation","trial_type":"html-keyboard-response","trial_index":152,"time_elapsed":158629,"internal_node_id":"0.0-4.0-2.0-0.8","participant_id":"3msdczge90","trial_duration":557},{"rt":534,"stimulus":"stimuli/MullerLyer_str0_diff-0.385968.png","response":"arrowdown","screen":"Trial","block":"MullerLyer","correct_response":"arrowdown","trial_type":"image-keyboard-response","trial_index":153,"time_elapsed":159165,"internal_node_id":"0.0-4.0-2.0-1.8","participant_id":"3msdczge90","prestimulus_duration":564,"correct":true,"type":"MullerLyer","illusion_strength":0,"illusion_difference":-0.3859677419354839,"block_number":2,"trial_number":9},{"rt":null,"stimulus":"<div style=\"font-size:60px;\">+</div>","response":null,"screen":"fixation","trial_type":"html-keyboard-response","trial_index":154,"time_elapsed":159852,"internal_node_id":"0.0-4.0-2.0-0.9","participant_id":"3msdczge90","trial_duration":680},{"rt":457,"stimulus":"stimuli/MullerLyer_str0_diff0.326742.png","response":"arrowup","screen":"Trial","block":"MullerLyer","correct_response":"arrowup","trial_type":"image-keyboard-response","trial_index":155,"time_elapsed":160319,"internal_node_id":"0.0-4.0-2.0-1.9","participant_id":"3msdczge90","prestimulus_duration":687,"correct":true,"type":"MullerLyer","illusion_strength":0,"illusion_difference":0.326741935483871,"block_number":2,"trial_number":10},{"rt":null,"stimulus":"<div style=\"font-size:60px;\">+</div>","response":null,"screen":"fixation","trial_type":"html-keyboard-response","trial_index":156,"time_elapsed":160955,"internal_node_id":"0.0-4.0-2.0-0.10","participant_id":"3msdczge90","trial_duration":630},{"rt":436,"stimulus":"stimuli/MullerLyer_str0_diff0.341548.png","response":"arrowup","screen":"Trial","block":"MullerLyer","correct_response":"arrowup","trial_type":"image-keyboard-response","trial_index":157,"time_elapsed":161393,"internal_node_id":"0.0-4.0-2.0-1.10","participant_id":"3msdczge90","prestimulus_duration":636,"correct":true,"type":"MullerLyer","illusion_strength":0,"illusion_difference":0.3415483870967742,"block_number":2,"trial_number":11},{"rt":null,"stimulus":"<div style=\"font-size:60px;\">+</div>","response":null,"screen":"fixation","trial_type":"html-keyboard-response","trial_index":158,"time_elapsed":162119,"internal_node_id":"0.0-4.0-2.0-0.11","participant_id":"3msdczge90","trial_duration":719},{"rt":363,"stimulus":"stimuli/MullerLyer_str0_diff-0.178677.png","response":"arrowup","screen":"Trial","block":"MullerLyer","correct_response":"arrowdown","trial_type":"image-keyboard-response","trial_index":159,"time_elapsed":162485,"internal_node_id":"0.0-4.0-2.0-1.11","participant_id":"3msdczge90","prestimulus_duration":726,"correct":false,"type":"MullerLyer","illusion_strength":0,"illusion_difference":-0.17867741935483872,"block_number":2,"trial_number":12},{"rt":null,"stimulus":"<div style=\"font-size:60px;\">+</div>","response":null,"screen":"fixation","trial_type":"html-keyboard-response","trial_index":160,"time_elapsed":163103,"internal_node_id":"0.0-4.0-2.0-0.12","participant_id":"3msdczge90","trial_duration":612},{"rt":404,"stimulus":"stimuli/MullerLyer_str0_diff-0.267516.png","response":"arrowdown","screen":"Trial","block":"MullerLyer","correct_response":"arrowdown","trial_type":"image-keyboard-response","trial_index":161,"time_elapsed":163510,"internal_node_id":"0.0-4.0-2.0-1.12","participant_id":"3msdczge90","prestimulus_duration":618,"correct":true,"type":"MullerLyer","illusion_strength":0,"illusion_difference":-0.2675161290322581,"block_number":2,"trial_number":13},{"rt":null,"stimulus":"<div style=\"font-size:60px;\">+</div>","response":null,"screen":"fixation","trial_type":"html-keyboard-response","trial_index":162,"time_elapsed":164327,"internal_node_id":"0.0-4.0-2.0-0.13","participant_id":"3msdczge90","trial_duration":811},{"rt":481,"stimulus":"stimuli/MullerLyer_str0_diff-0.163871.png","response":"arrowdown","screen":"Trial","block":"MullerLyer","correct_response":"arrowdown","trial_type":"image-keyboard-response","trial_index":163,"time_elapsed":164810,"internal_node_id":"0.0-4.0-2.0-1.13","participant_id":"3msdczge90","prestimulus_duration":817,"correct":true,"type":"MullerLyer","illusion_strength":0,"illusion_difference":-0.1638709677419355,"block_number":2,"trial_number":14},{"rt":null,"stimulus":"<div style=\"font-size:60px;\">+</div>","response":null,"screen":"fixation","trial_type":"html-keyboard-response","trial_index":164,"time_elapsed":165544,"internal_node_id":"0.0-4.0-2.0-0.14","participant_id":"3msdczge90","trial_duration":727},{"rt":419,"stimulus":"stimuli/MullerLyer_str0_diff-0.400774.png","response":"arrowdown","screen":"Trial","block":"MullerLyer","correct_response":"arrowdown","trial_type":"image-keyboard-response","trial_index":165,"time_elapsed":165965,"internal_node_id":"0.0-4.0-2.0-1.14","participant_id":"3msdczge90","prestimulus_duration":734,"correct":true,"type":"MullerLyer","illusion_strength":0,"illusion_difference":-0.4007741935483871,"block_number":2,"trial_number":15},{"rt":null,"stimulus":"<div style=\"font-size:60px;\">+</div>","response":null,"screen":"fixation","trial_type":"html-keyboard-response","trial_index":166,"time_elapsed":166838,"internal_node_id":"0.0-4.0-2.0-0.15","participant_id":"3msdczge90","trial_duration":866},{"rt":475,"stimulus":"stimuli/MullerLyer_str0_diff-0.371161.png","response":"arrowdown","screen":"Trial","block":"MullerLyer","correct_response":"arrowdown","trial_type":"image-keyboard-response","trial_index":167,"time_elapsed":167316,"internal_node_id":"0.0-4.0-2.0-1.15","participant_id":"3msdczge90","prestimulus_duration":873,"correct":true,"type":"MullerLyer","illusion_strength":0,"illusion_difference":-0.37116129032258066,"block_number":2,"trial_number":16},{"rt":null,"stimulus":"<div style=\"font-size:60px;\">+</div>","response":null,"screen":"fixation","trial_type":"html-keyboard-response","trial_index":168,"time_elapsed":168247,"internal_node_id":"0.0-4.0-2.0-0.16","participant_id":"3msdczge90","trial_duration":925},{"rt":549,"stimulus":"stimuli/MullerLyer_str0_diff-0.20829.png","response":"arrowdown","screen":"Trial","block":"MullerLyer","correct_response":"arrowdown","trial_type":"image-keyboard-response","trial_index":169,"time_elapsed":168799,"internal_node_id":"0.0-4.0-2.0-1.16","participant_id":"3msdczge90","prestimulus_duration":931,"correct":true,"type":"MullerLyer","illusion_strength":0,"illusion_difference":-0.20829032258064517,"block_number":2,"trial_number":17},{"rt":null,"stimulus":"<div style=\"font-size:60px;\">+</div>","response":null,"screen":"fixation","trial_type":"html-keyboard-response","trial_index":170,"time_elapsed":169757,"internal_node_id":"0.0-4.0-2.0-0.17","participant_id":"3msdczge90","trial_duration":951},{"rt":414,"stimulus":"stimuli/MullerLyer_str0_diff0.356355.png","response":"arrowup","screen":"Trial","block":"MullerLyer","correct_response":"arrowup","trial_type":"image-keyboard-response","trial_index":171,"time_elapsed":170173,"internal_node_id":"0.0-4.0-2.0-1.17","participant_id":"3msdczge90","prestimulus_duration":958,"correct":true,"type":"MullerLyer","illusion_strength":0,"illusion_difference":0.35635483870967744,"block_number":2,"trial_number":18},{"rt":null,"stimulus":"<div style=\"font-size:60px;\">+</div>","response":null,"screen":"fixation","trial_type":"html-keyboard-response","trial_index":172,"time_elapsed":170732,"internal_node_id":"0.0-4.0-2.0-0.18","participant_id":"3msdczge90","trial_duration":555},{"rt":471,"stimulus":"stimuli/MullerLyer_str0_diff-0.001.png","response":"arrowup","screen":"Trial","block":"MullerLyer","correct_response":"arrowdown","trial_type":"image-keyboard-response","trial_index":173,"time_elapsed":171206,"internal_node_id":"0.0-4.0-2.0-1.18","participant_id":"3msdczge90","prestimulus_duration":559,"correct":false,"type":"MullerLyer","illusion_strength":0,"illusion_difference":-0.001,"block_number":2,"trial_number":19},{"rt":null,"stimulus":"<div style=\"font-size:60px;\">+</div>","response":null,"screen":"fixation","trial_type":"html-keyboard-response","trial_index":174,"time_elapsed":172029,"internal_node_id":"0.0-4.0-2.0-0.19","participant_id":"3msdczge90","trial_duration":817},{"rt":546,"stimulus":"stimuli/MullerLyer_str0_diff0.178677.png","response":"arrowup","screen":"Trial","block":"MullerLyer","correct_response":"arrowup","trial_type":"image-keyboard-response","trial_index":175,"time_elapsed":172577,"internal_node_id":"0.0-4.0-2.0-1.19","participant_id":"3msdczge90","prestimulus_duration":823,"correct":true,"type":"MullerLyer","illusion_strength":0,"illusion_difference":0.17867741935483872,"block_number":2,"trial_number":20},{"rt":null,"stimulus":"<div style=\"font-size:60px;\">+</div>","response":null,"screen":"fixation","trial_type":"html-keyboard-response","trial_index":176,"time_elapsed":173382,"internal_node_id":"0.0-4.0-2.0-0.20","participant_id":"3msdczge90","trial_duration":798},{"rt":523,"stimulus":"stimuli/MullerLyer_str0_diff0.089839.png","response":"arrowup","screen":"Trial","block":"MullerLyer","correct_response":"arrowup","trial_type":"image-keyboard-response","trial_index":177,"time_elapsed":173907,"internal_node_id":"0.0-4.0-2.0-1.20","participant_id":"3msdczge90","prestimulus_duration":805,"correct":true,"type":"MullerLyer","illusion_strength":0,"illusion_difference":0.08983870967741936,"block_number":2,"trial_number":21},{"rt":null,"stimulus":"<div style=\"font-size:60px;\">+</div>","response":null,"screen":"fixation","trial_type":"html-keyboard-response","trial_index":178,"time_elapsed":174866,"internal_node_id":"0.0-4.0-2.0-0.21","participant_id":"3msdczge90","trial_duration":952},{"rt":435,"stimulus":"stimuli/MullerLyer_str0_diff0.282323.png","response":"arrowup","screen":"Trial","block":"MullerLyer","correct_response":"arrowup","trial_type":"image-keyboard-response","trial_index":179,"time_elapsed":175303,"internal_node_id":"0.0-4.0-2.0-1.21","participant_id":"3msdczge90","prestimulus_duration":959,"correct":true,"type":"MullerLyer","illusion_strength":0,"illusion_difference":0.2823225806451613,"block_number":2,"trial_number":22},{"rt":null,"stimulus":"<div style=\"font-size:60px;\">+</div>","response":null,"screen":"fixation","trial_type":"html-keyboard-response","trial_index":180,"time_elapsed":175828,"internal_node_id":"0.0-4.0-2.0-0.22","participant_id":"3msdczge90","trial_duration":522},{"rt":509,"stimulus":"stimuli/MullerLyer_str0_diff0.311935.png","response":"arrowup","screen":"Trial","block":"MullerLyer","correct_response":"arrowup","trial_type":"image-keyboard-response","trial_index":181,"time_elapsed":176339,"internal_node_id":"0.0-4.0-2.0-1.22","participant_id":"3msdczge90","prestimulus_duration":525,"correct":true,"type":"MullerLyer","illusion_strength":0,"illusion_difference":0.31193548387096776,"block_number":2,"trial_number":23},{"rt":null,"stimulus":"<div style=\"font-size:60px;\">+</div>","response":null,"screen":"fixation","trial_type":"html-keyboard-response","trial_index":182,"time_elapsed":177168,"internal_node_id":"0.0-4.0-2.0-0.23","participant_id":"3msdczge90","trial_duration":822},{"rt":483,"stimulus":"stimuli/MullerLyer_str0_diff0.267516.png","response":"arrowup","screen":"Trial","block":"MullerLyer","correct_response":"arrowup","trial_type":"image-keyboard-response","trial_index":183,"time_elapsed":177653,"internal_node_id":"0.0-4.0-2.0-1.23","participant_id":"3msdczge90","prestimulus_duration":829,"correct":true,"type":"MullerLyer","illusion_strength":0,"illusion_difference":0.2675161290322581,"block_number":2,"trial_number":24},{"rt":null,"stimulus":"<div style=\"font-size:60px;\">+</div>","response":null,"screen":"fixation","trial_type":"html-keyboard-response","trial_index":184,"time_elapsed":178425,"internal_node_id":"0.0-4.0-2.0-0.24","participant_id":"3msdczge90","trial_duration":765},{"rt":425,"stimulus":"stimuli/MullerLyer_str0_diff-0.045419.png","response":"arrowup","screen":"Trial","block":"MullerLyer","correct_response":"arrowdown","trial_type":"image-keyboard-response","trial_index":185,"time_elapsed":178852,"internal_node_id":"0.0-4.0-2.0-1.24","participant_id":"3msdczge90","prestimulus_duration":772,"correct":false,"type":"MullerLyer","illusion_strength":0,"illusion_difference":-0.04541935483870968,"block_number":2,"trial_number":25},{"rt":null,"stimulus":"<div style=\"font-size:60px;\">+</div>","response":null,"screen":"fixation","trial_type":"html-keyboard-response","trial_index":186,"time_elapsed":179811,"internal_node_id":"0.0-4.0-2.0-0.25","participant_id":"3msdczge90","trial_duration":952},{"rt":469,"stimulus":"stimuli/MullerLyer_str0_diff-0.075032.png","response":"arrowdown","screen":"Trial","block":"MullerLyer","correct_response":"arrowdown","trial_type":"image-keyboard-response","trial_index":187,"time_elapsed":180283,"internal_node_id":"0.0-4.0-2.0-1.25","participant_id":"3msdczge90","prestimulus_duration":959,"correct":true,"type":"MullerLyer","illusion_strength":0,"illusion_difference":-0.07503225806451613,"block_number":2,"trial_number":26},{"rt":null,"stimulus":"<div style=\"font-size:60px;\">+</div>","response":null,"screen":"fixation","trial_type":"html-keyboard-response","trial_index":188,"time_elapsed":180933,"internal_node_id":"0.0-4.0-2.0-0.26","participant_id":"3msdczge90","trial_duration":644},{"rt":431,"stimulus":"stimuli/MullerLyer_str0_diff0.415581.png","response":"arrowup","screen":"Trial","block":"MullerLyer","correct_response":"arrowup","trial_type":"image-keyboard-response","trial_index":189,"time_elapsed":181367,"internal_node_id":"0.0-4.0-2.0-1.26","participant_id":"3msdczge90","prestimulus_duration":650,"correct":true,"type":"MullerLyer","illusion_strength":0,"illusion_difference":0.41558064516129034,"block_number":2,"trial_number":27},{"rt":null,"stimulus":"<div style=\"font-size:60px;\">+</div>","response":null,"screen":"fixation","trial_type":"html-keyboard-response","trial_index":190,"time_elapsed":182344,"internal_node_id":"0.0-4.0-2.0-0.27","participant_id":"3msdczge90","trial_duration":970},{"rt":507,"stimulus":"stimuli/MullerLyer_str0_diff0.015806.png","response":"arrowup","screen":"Trial","block":"MullerLyer","correct_response":"arrowup","trial_type":"image-keyboard-response","trial_index":191,"time_elapsed":182853,"internal_node_id":"0.0-4.0-2.0-1.27","participant_id":"3msdczge90","prestimulus_duration":977,"correct":true,"type":"MullerLyer","illusion_strength":0,"illusion_difference":0.015806451612903227,"block_number":2,"trial_number":28},{"rt":null,"stimulus":"<div style=\"font-size:60px;\">+</div>","response":null,"screen":"fixation","trial_type":"html-keyboard-response","trial_index":192,"time_elapsed":183414,"internal_node_id":"0.0-4.0-2.0-0.28","participant_id":"3msdczge90","trial_duration":554},{"rt":465,"stimulus":"stimuli/MullerLyer_str0_diff-0.297129.png","response":"arrowdown","screen":"Trial","block":"MullerLyer","correct_response":"arrowdown","trial_type":"image-keyboard-response","trial_index":193,"time_elapsed":183881,"internal_node_id":"0.0-4.0-2.0-1.28","participant_id":"3msdczge90","prestimulus_duration":561,"correct":true,"type":"MullerLyer","illusion_strength":0,"illusion_difference":-0.29712903225806453,"block_number":2,"trial_number":29},{"rt":null,"stimulus":"<div style=\"font-size:60px;\">+</div>","response":null,"screen":"fixation","trial_type":"html-keyboard-response","trial_index":194,"time_elapsed":184590,"internal_node_id":"0.0-4.0-2.0-0.29","participant_id":"3msdczge90","trial_duration":702},{"rt":649,"stimulus":"stimuli/MullerLyer_str0_diff-0.119452.png","response":"arrowdown","screen":"Trial","block":"MullerLyer","correct_response":"arrowdown","trial_type":"image-keyboard-response","trial_index":195,"time_elapsed":185241,"internal_node_id":"0.0-4.0-2.0-1.29","participant_id":"3msdczge90","prestimulus_duration":709,"correct":true,"type":"MullerLyer","illusion_strength":0,"illusion_difference":-0.11945161290322581,"block_number":2,"trial_number":30},{"rt":null,"stimulus":"<div style=\"font-size:60px;\">+</div>","response":null,"screen":"fixation","trial_type":"html-keyboard-response","trial_index":196,"time_elapsed":186160,"internal_node_id":"0.0-4.0-2.0-0.30","participant_id":"3msdczge90","trial_duration":912},{"rt":622,"stimulus":"stimuli/MullerLyer_str0_diff-0.341548.png","response":"arrowdown","screen":"Trial","block":"MullerLyer","correct_response":"arrowdown","trial_type":"image-keyboard-response","trial_index":197,"time_elapsed":186785,"internal_node_id":"0.0-4.0-2.0-1.30","participant_id":"3msdczge90","prestimulus_duration":919,"correct":true,"type":"MullerLyer","illusion_strength":0,"illusion_difference":-0.3415483870967742,"block_number":2,"trial_number":31},{"rt":null,"stimulus":"<div style=\"font-size:60px;\">+</div>","response":null,"screen":"fixation","trial_type":"html-keyboard-response","trial_index":198,"time_elapsed":187475,"internal_node_id":"0.0-4.0-2.0-0.31","participant_id":"3msdczge90","trial_duration":686},{"rt":563,"stimulus":"stimuli/MullerLyer_str0_diff-0.060226.png","response":"arrowdown","screen":"Trial","block":"MullerLyer","correct_response":"arrowdown","trial_type":"image-keyboard-response","trial_index":199,"time_elapsed":188040,"internal_node_id":"0.0-4.0-2.0-1.31","participant_id":"3msdczge90","prestimulus_duration":690,"correct":true,"type":"MullerLyer","illusion_strength":0,"illusion_difference":-0.06022580645161291,"block_number":2,"trial_number":32},{"rt":null,"stimulus":"<div style=\"font-size:60px;\">+</div>","response":null,"screen":"fixation","trial_type":"html-keyboard-response","trial_index":200,"time_elapsed":188996,"internal_node_id":"0.0-4.0-2.0-0.32","participant_id":"3msdczge90","trial_duration":949},{"rt":636,"stimulus":"stimuli/MullerLyer_str0_diff0.134258.png","response":"arrowup","screen":"Trial","block":"MullerLyer","correct_response":"arrowup","trial_type":"image-keyboard-response","trial_index":201,"time_elapsed":189634,"internal_node_id":"0.0-4.0-2.0-1.32","participant_id":"3msdczge90","prestimulus_duration":956,"correct":true,"type":"MullerLyer","illusion_strength":0,"illusion_difference":0.13425806451612904,"block_number":2,"trial_number":33},{"rt":null,"stimulus":"<div style=\"font-size:60px;\">+</div>","response":null,"screen":"fixation","trial_type":"html-keyboard-response","trial_index":202,"time_elapsed":190424,"internal_node_id":"0.0-4.0-2.0-0.33","participant_id":"3msdczge90","trial_duration":784},{"rt":470,"stimulus":"stimuli/MullerLyer_str0_diff0.46.png","response":"arrowup","screen":"Trial","block":"MullerLyer","correct_response":"arrowup","trial_type":"image-keyboard-response","trial_index":203,"time_elapsed":190897,"internal_node_id":"0.0-4.0-2.0-1.33","participant_id":"3msdczge90","prestimulus_duration":790,"correct":true,"type":"MullerLyer","illusion_strength":0,"illusion_difference":0.46,"block_number":2,"trial_number":34},{"rt":null,"stimulus":"<div style=\"font-size:60px;\">+</div>","response":null,"screen":"fixation","trial_type":"html-keyboard-response","trial_index":204,"time_elapsed":191836,"internal_node_id":"0.0-4.0-2.0-0.34","participant_id":"3msdczge90","trial_duration":932},{"rt":544,"stimulus":"stimuli/MullerLyer_str0_diff-0.282323.png","response":"arrowdown","screen":"Trial","block":"MullerLyer","correct_response":"arrowdown","trial_type":"image-keyboard-response","trial_index":205,"time_elapsed":192382,"internal_node_id":"0.0-4.0-2.0-1.34","participant_id":"3msdczge90","prestimulus_duration":939,"correct":true,"type":"MullerLyer","illusion_strength":0,"illusion_difference":-0.2823225806451613,"block_number":2,"trial_number":35},{"rt":null,"stimulus":"<div style=\"font-size:60px;\">+</div>","response":null,"screen":"fixation","trial_type":"html-keyboard-response","trial_index":206,"time_elapsed":193149,"internal_node_id":"0.0-4.0-2.0-0.35","participant_id":"3msdczge90","trial_duration":761},{"rt":479,"stimulus":"stimuli/MullerLyer_str0_diff-0.015806.png","response":"arrowup","screen":"Trial","block":"MullerLyer","correct_response":"arrowdown","trial_type":"image-keyboard-response","trial_index":207,"time_elapsed":193630,"internal_node_id":"0.0-4.0-2.0-1.35","participant_id":"3msdczge90","prestimulus_duration":767,"correct":false,"type":"MullerLyer","illusion_strength":0,"illusion_difference":-0.015806451612903227,"block_number":2,"trial_number":36},{"rt":null,"stimulus":"<div style=\"font-size:60px;\">+</div>","response":null,"screen":"fixation","trial_type":"html-keyboard-response","trial_index":208,"time_elapsed":194516,"internal_node_id":"0.0-4.0-2.0-0.36","participant_id":"3msdczge90","trial_duration":879},{"rt":598,"stimulus":"stimuli/MullerLyer_str0_diff-0.149065.png","response":"arrowdown","screen":"Trial","block":"MullerLyer","correct_response":"arrowdown","trial_type":"image-keyboard-response","trial_index":209,"time_elapsed":195116,"internal_node_id":"0.0-4.0-2.0-1.36","participant_id":"3msdczge90","prestimulus_duration":886,"correct":true,"type":"MullerLyer","illusion_strength":0,"illusion_difference":-0.14906451612903227,"block_number":2,"trial_number":37},{"rt":null,"stimulus":"<div style=\"font-size:60px;\">+</div>","response":null,"screen":"fixation","trial_type":"html-keyboard-response","trial_index":210,"time_elapsed":195699,"internal_node_id":"0.0-4.0-2.0-0.37","participant_id":"3msdczge90","trial_duration":576},{"rt":433,"stimulus":"stimuli/MullerLyer_str0_diff0.25271.png","response":"arrowup","screen":"Trial","block":"MullerLyer","correct_response":"arrowup","trial_type":"image-keyboard-response","trial_index":211,"time_elapsed":196134,"internal_node_id":"0.0-4.0-2.0-1.37","participant_id":"3msdczge90","prestimulus_duration":583,"correct":true,"type":"MullerLyer","illusion_strength":0,"illusion_difference":0.25270967741935485,"block_number":2,"trial_number":38},{"rt":null,"stimulus":"<div style=\"font-size:60px;\">+</div>","response":null,"screen":"fixation","trial_type":"html-keyboard-response","trial_index":212,"time_elapsed":197044,"internal_node_id":"0.0-4.0-2.0-0.38","participant_id":"3msdczge90","trial_duration":903},{"rt":616,"stimulus":"stimuli/MullerLyer_str0_diff0.371161.png","response":"arrowup","screen":"Trial","block":"MullerLyer","correct_response":"arrowup","trial_type":"image-keyboard-response","trial_index":213,"time_elapsed":197662,"internal_node_id":"0.0-4.0-2.0-1.38","participant_id":"3msdczge90","prestimulus_duration":910,"correct":true,"type":"MullerLyer","illusion_strength":0,"illusion_difference":0.37116129032258066,"block_number":2,"trial_number":39},{"rt":null,"stimulus":"<div style=\"font-size:60px;\">+</div>","response":null,"screen":"fixation","trial_type":"html-keyboard-response","trial_index":214,"time_elapsed":198594,"internal_node_id":"0.0-4.0-2.0-0.39","participant_id":"3msdczge90","trial_duration":925},{"rt":609,"stimulus":"stimuli/MullerLyer_str0_diff0.193484.png","response":"arrowup","screen":"Trial","block":"MullerLyer","correct_response":"arrowup","trial_type":"image-keyboard-response","trial_index":215,"time_elapsed":199205,"internal_node_id":"0.0-4.0-2.0-1.39","participant_id":"3msdczge90","prestimulus_duration":932,"correct":true,"type":"MullerLyer","illusion_strength":0,"illusion_difference":0.19348387096774194,"block_number":2,"trial_number":40},{"rt":null,"stimulus":"<div style=\"font-size:60px;\">+</div>","response":null,"screen":"fixation","trial_type":"html-keyboard-response","trial_index":216,"time_elapsed":199989,"internal_node_id":"0.0-4.0-2.0-0.40","participant_id":"3msdczge90","trial_duration":777},{"rt":499,"stimulus":"stimuli/MullerLyer_str0_diff-0.223097.png","response":"arrowdown","screen":"Trial","block":"MullerLyer","correct_response":"arrowdown","trial_type":"image-keyboard-response","trial_index":217,"time_elapsed":200490,"internal_node_id":"0.0-4.0-2.0-1.40","participant_id":"3msdczge90","prestimulus_duration":784,"correct":true,"type":"MullerLyer","illusion_strength":0,"illusion_difference":-0.2230967741935484,"block_number":2,"trial_number":41},{"rt":null,"stimulus":"<div style=\"font-size:60px;\">+</div>","response":null,"screen":"fixation","trial_type":"html-keyboard-response","trial_index":218,"time_elapsed":201125,"internal_node_id":"0.0-4.0-2.0-0.41","participant_id":"3msdczge90","trial_duration":629},{"rt":436,"stimulus":"stimuli/MullerLyer_str0_diff-0.445194.png","response":"arrowdown","screen":"Trial","block":"MullerLyer","correct_response":"arrowdown","trial_type":"image-keyboard-response","trial_index":219,"time_elapsed":201562,"internal_node_id":"0.0-4.0-2.0-1.41","participant_id":"3msdczge90","prestimulus_duration":635,"correct":true,"type":"MullerLyer","illusion_strength":0,"illusion_difference":-0.4451935483870968,"block_number":2,"trial_number":42},{"rt":null,"stimulus":"<div style=\"font-size:60px;\">+</div>","response":null,"screen":"fixation","trial_type":"html-keyboard-response","trial_index":220,"time_elapsed":202097,"internal_node_id":"0.0-4.0-2.0-0.42","participant_id":"3msdczge90","trial_duration":530},{"rt":461,"stimulus":"stimuli/MullerLyer_str0_diff-0.089839.png","response":"arrowdown","screen":"Trial","block":"MullerLyer","correct_response":"arrowdown","trial_type":"image-keyboard-response","trial_index":221,"time_elapsed":202560,"internal_node_id":"0.0-4.0-2.0-1.42","participant_id":"3msdczge90","prestimulus_duration":535,"correct":true,"type":"MullerLyer","illusion_strength":0,"illusion_difference":-0.08983870967741936,"block_number":2,"trial_number":43},{"rt":null,"stimulus":"<div style=\"font-size:60px;\">+</div>","response":null,"screen":"fixation","trial_type":"html-keyboard-response","trial_index":222,"time_elapsed":203275,"internal_node_id":"0.0-4.0-2.0-0.43","participant_id":"3msdczge90","trial_duration":714},{"rt":453,"stimulus":"stimuli/MullerLyer_str0_diff0.297129.png","response":"arrowup","screen":"Trial","block":"MullerLyer","correct_response":"arrowup","trial_type":"image-keyboard-response","trial_index":223,"time_elapsed":203731,"internal_node_id":"0.0-4.0-2.0-1.43","participant_id":"3msdczge90","prestimulus_duration":715,"correct":true,"type":"MullerLyer","illusion_strength":0,"illusion_difference":0.29712903225806453,"block_number":2,"trial_number":44},{"rt":null,"stimulus":"<div style=\"font-size:60px;\">+</div>","response":null,"screen":"fixation","trial_type":"html-keyboard-response","trial_index":224,"time_elapsed":204577,"internal_node_id":"0.0-4.0-2.0-0.44","participant_id":"3msdczge90","trial_duration":843},{"rt":1531,"stimulus":"stimuli/MullerLyer_str0_diff-0.104645.png","response":"arrowdown","screen":"Trial","block":"MullerLyer","correct_response":"arrowdown","trial_type":"image-keyboard-response","trial_index":225,"time_elapsed":206110,"internal_node_id":"0.0-4.0-2.0-1.44","participant_id":"3msdczge90","prestimulus_duration":846,"correct":true,"type":"MullerLyer","illusion_strength":0,"illusion_difference":-0.10464516129032259,"block_number":2,"trial_number":45},{"rt":null,"stimulus":"<div style=\"font-size:60px;\">+</div>","response":null,"screen":"fixation","trial_type":"html-keyboard-response","trial_index":226,"time_elapsed":206932,"internal_node_id":"0.0-4.0-2.0-0.45","participant_id":"3msdczge90","trial_duration":819},{"rt":611,"stimulus":"stimuli/MullerLyer_str0_diff0.045419.png","response":"arrowdown","screen":"Trial","block":"MullerLyer","correct_response":"arrowup","trial_type":"image-keyboard-response","trial_index":227,"time_elapsed":207545,"internal_node_id":"0.0-4.0-2.0-1.45","participant_id":"3msdczge90","prestimulus_duration":822,"correct":false,"type":"MullerLyer","illusion_strength":0,"illusion_difference":0.04541935483870968,"block_number":2,"trial_number":46},{"rt":null,"stimulus":"<div style=\"font-size:60px;\">+</div>","response":null,"screen":"fixation","trial_type":"html-keyboard-response","trial_index":228,"time_elapsed":208376,"internal_node_id":"0.0-4.0-2.0-0.46","participant_id":"3msdczge90","trial_duration":824},{"rt":996,"stimulus":"stimuli/MullerLyer_str0_diff-0.415581.png","response":"arrowdown","screen":"Trial","block":"MullerLyer","correct_response":"arrowdown","trial_type":"image-keyboard-response","trial_index":229,"time_elapsed":209374,"internal_node_id":"0.0-4.0-2.0-1.46","participant_id":"3msdczge90","prestimulus_duration":831,"correct":true,"type":"MullerLyer","illusion_strength":0,"illusion_difference":-0.41558064516129034,"block_number":2,"trial_number":47},{"rt":null,"stimulus":"<div style=\"font-size:60px;\">+</div>","response":null,"screen":"fixation","trial_type":"html-keyboard-response","trial_index":230,"time_elapsed":209965,"internal_node_id":"0.0-4.0-2.0-0.47","participant_id":"3msdczge90","trial_duration":586},{"rt":654,"stimulus":"stimuli/MullerLyer_str0_diff0.163871.png","response":"arrowup","screen":"Trial","block":"MullerLyer","correct_response":"arrowup","trial_type":"image-keyboard-response","trial_index":231,"time_elapsed":210622,"internal_node_id":"0.0-4.0-2.0-1.47","participant_id":"3msdczge90","prestimulus_duration":591,"correct":true,"type":"MullerLyer","illusion_strength":0,"illusion_difference":0.1638709677419355,"block_number":2,"trial_number":48},{"rt":null,"stimulus":"<div style=\"font-size:60px;\">+</div>","response":null,"screen":"fixation","trial_type":"html-keyboard-response","trial_index":232,"time_elapsed":211547,"internal_node_id":"0.0-4.0-2.0-0.48","participant_id":"3msdczge90","trial_duration":921},{"rt":1058,"stimulus":"stimuli/MullerLyer_str0_diff-0.25271.png","response":"arrowdown","screen":"Trial","block":"MullerLyer","correct_response":"arrowdown","trial_type":"image-keyboard-response","trial_index":233,"time_elapsed":212607,"internal_node_id":"0.0-4.0-2.0-1.48","participant_id":"3msdczge90","prestimulus_duration":925,"correct":true,"type":"MullerLyer","illusion_strength":0,"illusion_difference":-0.25270967741935485,"block_number":2,"trial_number":49},{"rt":null,"stimulus":"<div style=\"font-size:60px;\">+</div>","response":null,"screen":"fixation","trial_type":"html-keyboard-response","trial_index":234,"time_elapsed":213449,"internal_node_id":"0.0-4.0-2.0-0.49","participant_id":"3msdczge90","trial_duration":837},{"rt":528,"stimulus":"stimuli/MullerLyer_str0_diff0.030613.png","response":"arrowup","screen":"Trial","block":"MullerLyer","correct_response":"arrowup","trial_type":"image-keyboard-response","trial_index":235,"time_elapsed":213979,"internal_node_id":"0.0-4.0-2.0-1.49","participant_id":"3msdczge90","prestimulus_duration":842,"correct":true,"type":"MullerLyer","illusion_strength":0,"illusion_difference":0.030612903225806454,"block_number":2,"trial_number":50},{"rt":null,"stimulus":"<div style=\"font-size:60px;\">+</div>","response":null,"screen":"fixation","trial_type":"html-keyboard-response","trial_index":236,"time_elapsed":214555,"internal_node_id":"0.0-4.0-2.0-0.50","participant_id":"3msdczge90","trial_duration":572},{"rt":484,"stimulus":"stimuli/MullerLyer_str0_diff-0.193484.png","response":"arrowdown","screen":"Trial","block":"MullerLyer","correct_response":"arrowdown","trial_type":"image-keyboard-response","trial_index":237,"time_elapsed":215041,"internal_node_id":"0.0-4.0-2.0-1.50","participant_id":"3msdczge90","prestimulus_duration":576,"correct":true,"type":"MullerLyer","illusion_strength":0,"illusion_difference":-0.19348387096774194,"block_number":2,"trial_number":51},{"rt":null,"stimulus":"<div style=\"font-size:60px;\">+</div>","response":null,"screen":"fixation","trial_type":"html-keyboard-response","trial_index":238,"time_elapsed":215821,"internal_node_id":"0.0-4.0-2.0-0.51","participant_id":"3msdczge90","trial_duration":775},{"rt":401,"stimulus":"stimuli/MullerLyer_str0_diff-0.237903.png","response":"arrowdown","screen":"Trial","block":"MullerLyer","correct_response":"arrowdown","trial_type":"image-keyboard-response","trial_index":239,"time_elapsed":216225,"internal_node_id":"0.0-4.0-2.0-1.51","participant_id":"3msdczge90","prestimulus_duration":780,"correct":true,"type":"MullerLyer","illusion_strength":0,"illusion_difference":-0.23790322580645162,"block_number":2,"trial_number":52},{"rt":null,"stimulus":"<div style=\"font-size:60px;\">+</div>","response":null,"screen":"fixation","trial_type":"html-keyboard-response","trial_index":240,"time_elapsed":216821,"internal_node_id":"0.0-4.0-2.0-0.52","participant_id":"3msdczge90","trial_duration":595},{"rt":2104,"stimulus":"stimuli/MullerLyer_str0_diff-0.134258.png","response":"arrowdown","screen":"Trial","block":"MullerLyer","correct_response":"arrowdown","trial_type":"image-keyboard-response","trial_index":241,"time_elapsed":218927,"internal_node_id":"0.0-4.0-2.0-1.52","participant_id":"3msdczge90","prestimulus_duration":596,"correct":true,"type":"MullerLyer","illusion_strength":0,"illusion_difference":-0.13425806451612904,"block_number":2,"trial_number":53},{"rt":null,"stimulus":"<div style=\"font-size:60px;\">+</div>","response":null,"screen":"fixation","trial_type":"html-keyboard-response","trial_index":242,"time_elapsed":219763,"internal_node_id":"0.0-4.0-2.0-0.53","participant_id":"3msdczge90","trial_duration":830},{"rt":1637,"stimulus":"stimuli/MullerLyer_str0_diff0.075032.png","response":"arrowup","screen":"Trial","block":"MullerLyer","correct_response":"arrowup","trial_type":"image-keyboard-response","trial_index":243,"time_elapsed":221403,"internal_node_id":"0.0-4.0-2.0-1.53","participant_id":"3msdczge90","prestimulus_duration":836,"correct":true,"type":"MullerLyer","illusion_strength":0,"illusion_difference":0.07503225806451613,"block_number":2,"trial_number":54},{"rt":null,"stimulus":"<div style=\"font-size:60px;\">+</div>","response":null,"screen":"fixation","trial_type":"html-keyboard-response","trial_index":244,"time_elapsed":222232,"internal_node_id":"0.0-4.0-2.0-0.54","participant_id":"3msdczge90","trial_duration":824},{"rt":441,"stimulus":"stimuli/MullerLyer_str0_diff0.001.png","response":"arrowdown","screen":"Trial","block":"MullerLyer","correct_response":"arrowup","trial_type":"image-keyboard-response","trial_index":245,"time_elapsed":222676,"internal_node_id":"0.0-4.0-2.0-1.54","participant_id":"3msdczge90","prestimulus_duration":829,"correct":false,"type":"MullerLyer","illusion_strength":0,"illusion_difference":0.001,"block_number":2,"trial_number":55},{"rt":null,"stimulus":"<div style=\"font-size:60px;\">+</div>","response":null,"screen":"fixation","trial_type":"html-keyboard-response","trial_index":246,"time_elapsed":223288,"internal_node_id":"0.0-4.0-2.0-0.55","participant_id":"3msdczge90","trial_duration":608},{"rt":463,"stimulus":"stimuli/MullerLyer_str0_diff0.223097.png","response":"arrowup","screen":"Trial","block":"MullerLyer","correct_response":"arrowup","trial_type":"image-keyboard-response","trial_index":247,"time_elapsed":223754,"internal_node_id":"0.0-4.0-2.0-1.55","participant_id":"3msdczge90","prestimulus_duration":612,"correct":true,"type":"MullerLyer","illusion_strength":0,"illusion_difference":0.2230967741935484,"block_number":2,"trial_number":56},{"rt":null,"stimulus":"<div style=\"font-size:60px;\">+</div>","response":null,"screen":"fixation","trial_type":"html-keyboard-response","trial_index":248,"time_elapsed":224588,"internal_node_id":"0.0-4.0-2.0-0.56","participant_id":"3msdczge90","trial_duration":829},{"rt":399,"stimulus":"stimuli/MullerLyer_str0_diff0.445194.png","response":"arrowup","screen":"Trial","block":"MullerLyer","correct_response":"arrowup","trial_type":"image-keyboard-response","trial_index":249,"time_elapsed":224989,"internal_node_id":"0.0-4.0-2.0-1.56","participant_id":"3msdczge90","prestimulus_duration":834,"correct":true,"type":"MullerLyer","illusion_strength":0,"illusion_difference":0.4451935483870968,"block_number":2,"trial_number":57},{"rt":null,"stimulus":"<div style=\"font-size:60px;\">+</div>","response":null,"screen":"fixation","trial_type":"html-keyboard-response","trial_index":250,"time_elapsed":225638,"internal_node_id":"0.0-4.0-2.0-0.57","participant_id":"3msdczge90","trial_duration":643},{"rt":807,"stimulus":"stimuli/MullerLyer_str0_diff-0.030613.png","response":"arrowdown","screen":"Trial","block":"MullerLyer","correct_response":"arrowdown","trial_type":"image-keyboard-response","trial_index":251,"time_elapsed":226448,"internal_node_id":"0.0-4.0-2.0-1.57","participant_id":"3msdczge90","prestimulus_duration":649,"correct":true,"type":"MullerLyer","illusion_strength":0,"illusion_difference":-0.030612903225806454,"block_number":2,"trial_number":58},{"rt":null,"stimulus":"<div style=\"font-size:60px;\">+</div>","response":null,"screen":"fixation","trial_type":"html-keyboard-response","trial_index":252,"time_elapsed":227216,"internal_node_id":"0.0-4.0-2.0-0.58","participant_id":"3msdczge90","trial_duration":766},{"rt":488,"stimulus":"stimuli/MullerLyer_str0_diff-0.356355.png","response":"arrowdown","screen":"Trial","block":"MullerLyer","correct_response":"arrowdown","trial_type":"image-keyboard-response","trial_index":253,"time_elapsed":227706,"internal_node_id":"0.0-4.0-2.0-1.58","participant_id":"3msdczge90","prestimulus_duration":768,"correct":true,"type":"MullerLyer","illusion_strength":0,"illusion_difference":-0.35635483870967744,"block_number":2,"trial_number":59},{"rt":null,"stimulus":"<div style=\"font-size:60px;\">+</div>","response":null,"screen":"fixation","trial_type":"html-keyboard-response","trial_index":254,"time_elapsed":228541,"internal_node_id":"0.0-4.0-2.0-0.59","participant_id":"3msdczge90","trial_duration":832},{"rt":665,"stimulus":"stimuli/MullerLyer_str0_diff0.104645.png","response":"arrowup","screen":"Trial","block":"MullerLyer","correct_response":"arrowup","trial_type":"image-keyboard-response","trial_index":255,"time_elapsed":229208,"internal_node_id":"0.0-4.0-2.0-1.59","participant_id":"3msdczge90","prestimulus_duration":835,"correct":true,"type":"MullerLyer","illusion_strength":0,"illusion_difference":0.10464516129032259,"block_number":2,"trial_number":60},{"rt":null,"stimulus":"<div style=\"font-size:60px;\">+</div>","response":null,"screen":"fixation","trial_type":"html-keyboard-response","trial_index":256,"time_elapsed":230184,"internal_node_id":"0.0-4.0-2.0-0.60","participant_id":"3msdczge90","trial_duration":973},{"rt":962,"stimulus":"stimuli/MullerLyer_str0_diff-0.430387.png","response":"arrowdown","screen":"Trial","block":"MullerLyer","correct_response":"arrowdown","trial_type":"image-keyboard-response","trial_index":257,"time_elapsed":231148,"internal_node_id":"0.0-4.0-2.0-1.60","participant_id":"3msdczge90","prestimulus_duration":976,"correct":true,"type":"MullerLyer","illusion_strength":0,"illusion_difference":-0.43038709677419357,"block_number":2,"trial_number":61},{"rt":null,"stimulus":"<div style=\"font-size:60px;\">+</div>","response":null,"screen":"fixation","trial_type":"html-keyboard-response","trial_index":258,"time_elapsed":231930,"internal_node_id":"0.0-4.0-2.0-0.61","participant_id":"3msdczge90","trial_duration":779},{"rt":480,"stimulus":"stimuli/MullerLyer_str0_diff0.149065.png","response":"arrowdown","screen":"Trial","block":"MullerLyer","correct_response":"arrowup","trial_type":"image-keyboard-response","trial_index":259,"time_elapsed":232412,"internal_node_id":"0.0-4.0-2.0-1.61","participant_id":"3msdczge90","prestimulus_duration":782,"correct":false,"type":"MullerLyer","illusion_strength":0,"illusion_difference":0.14906451612903227,"block_number":2,"trial_number":62},{"rt":null,"stimulus":"<div style=\"font-size:60px;\">+</div>","response":null,"screen":"fixation","trial_type":"html-keyboard-response","trial_index":260,"time_elapsed":233297,"internal_node_id":"0.0-4.0-2.0-0.62","participant_id":"3msdczge90","trial_duration":883},{"rt":368,"stimulus":"stimuli/MullerLyer_str0_diff0.400774.png","response":"arrowup","screen":"Trial","block":"MullerLyer","correct_response":"arrowup","trial_type":"image-keyboard-response","trial_index":261,"time_elapsed":233668,"internal_node_id":"0.0-4.0-2.0-1.62","participant_id":"3msdczge90","prestimulus_duration":885,"correct":true,"type":"MullerLyer","illusion_strength":0,"illusion_difference":0.4007741935483871,"block_number":2,"trial_number":63},{"rt":null,"stimulus":"<div style=\"font-size:60px;\">+</div>","response":null,"screen":"fixation","trial_type":"html-keyboard-response","trial_index":262,"time_elapsed":234180,"internal_node_id":"0.0-4.0-2.0-0.63","participant_id":"3msdczge90","trial_duration":509},{"rt":699,"stimulus":"stimuli/MullerLyer_str0_diff0.119452.png","response":"arrowup","screen":"Trial","block":"MullerLyer","correct_response":"arrowup","trial_type":"image-keyboard-response","trial_index":263,"time_elapsed":234881,"internal_node_id":"0.0-4.0-2.0-1.63","participant_id":"3msdczge90","prestimulus_duration":512,"correct":true,"type":"MullerLyer","illusion_strength":0,"illusion_difference":0.11945161290322581,"block_number":2,"trial_number":64},{"rt":1583,"stimulus":"<p>Your score for this illusion is <p style=\"color: black; font-size: 48px; font-weight: bold;\">84</p><hr><p>Can you do better in the next block?</p>","response":0,"screen":"block_results","trial_type":"html-button-response","trial_index":264,"time_elapsed":236471,"internal_node_id":"0.0-4.0-3.0","participant_id":"3msdczge90"},{"success":true,"timeout":false,"failed_images":[],"failed_audio":[],"failed_video":[],"trial_type":"preload","trial_index":265,"time_elapsed":236772,"internal_node_id":"0.0-5.0-0.0","participant_id":"3msdczge90"},{"rt":5567,"stimulus":"<p><b>Part 3</b></p><p>In this part, two horizontal red lines will appear one above the other.</p><p>Your task is to tell <b>the direction</b> towards which the red lines are converging, as fast as you can, and without making errors.</p><p>Press <b>the LEFT or the RIGHT arrow</b> to indicate the <b>direction where the red lines are pointing.</b></p><div style='float: center'><img src='utils/stimuli_demo/Zollner_Demo.png' height='300'></img><p><img src='utils/answer/answer_leftright_keyboard.PNG' height='150'></img></p><p class='small'>In this example, the correct answer is the <b>LEFT arrow</b>.</p></div><p>Are you ready? <b>Press ENTER to start</b></p>","response":"enter","trial_type":"html-keyboard-response","trial_index":266,"time_elapsed":242340,"internal_node_id":"0.0-5.0-1.0","participant_id":"3msdczge90"},{"rt":null,"stimulus":"<div style=\"font-size:60px;\">+</div>","response":null,"screen":"fixation","trial_type":"html-keyboard-response","trial_index":267,"time_elapsed":243402,"internal_node_id":"0.0-5.0-2.0-0.0","participant_id":"3msdczge90","trial_duration":552},{"rt":785,"stimulus":"stimuli/Zollner_str0_diff-0.80729.png","response":"arrowright","screen":"Trial","block":"Zollner","correct_response":"arrowleft","trial_type":"image-keyboard-response","trial_index":268,"time_elapsed":244189,"internal_node_id":"0.0-5.0-2.0-1.0","participant_id":"3msdczge90","prestimulus_duration":1062,"correct":false,"type":"Zollner","illusion_strength":0,"illusion_difference":-0.8072903225806451,"block_number":3,"trial_number":1},{"rt":null,"stimulus":"<div style=\"font-size:60px;\">+</div>","response":null,"screen":"fixation","trial_type":"html-keyboard-response","trial_index":269,"time_elapsed":244842,"internal_node_id":"0.0-5.0-2.0-0.1","participant_id":"3msdczge90","trial_duration":646},{"rt":394,"stimulus":"stimuli/Zollner_str0_diff2.581129.png","response":"arrowleft","screen":"Trial","block":"Zollner","correct_response":"arrowright","trial_type":"image-keyboard-response","trial_index":270,"time_elapsed":245238,"internal_node_id":"0.0-5.0-2.0-1.1","participant_id":"3msdczge90","prestimulus_duration":653,"correct":false,"type":"Zollner","illusion_strength":0,"illusion_difference":2.5811290322580644,"block_number":3,"trial_number":2},{"rt":null,"stimulus":"<div style=\"font-size:60px;\">+</div>","response":null,"screen":"fixation","trial_type":"html-keyboard-response","trial_index":271,"time_elapsed":245774,"internal_node_id":"0.0-5.0-2.0-0.2","participant_id":"3msdczge90","trial_duration":529},{"rt":321,"stimulus":"stimuli/Zollner_str0_diff4.677484.png","response":"arrowright","screen":"Trial","block":"Zollner","correct_response":"arrowright","trial_type":"image-keyboard-response","trial_index":272,"time_elapsed":246097,"internal_node_id":"0.0-5.0-2.0-1.2","participant_id":"3msdczge90","prestimulus_duration":536,"correct"