[{"success":true,"trial_type":"fullscreen","trial_index":0,"time_elapsed":1304,"internal_node_id":"0.0-0.0","participant_id":"t92d8ethzz"},{"success":true,"timeout":false,"failed_images":[],"failed_audio":[],"failed_video":[],"trial_type":"preload","trial_index":1,"time_elapsed":1425,"internal_node_id":"0.0-1.0","participant_id":"t92d8ethzz"},{"rt":2494,"stimulus":"<p><b>The Illusion Game</b></p><p>In this game of speed and reflex, you will need to make <b>visual judgments</b> of different targets (for instance, which circle is the biggest, or which line is the longest), as <b>quickly</b> as possible.</p><p>It can be challenging at times, so you want to rely on your intuition and gut feeling to answer as <b>fast</b> as you can.</p><p>Don't worry, we will show you examples of each target before each block.</p><p>Remember, your goal is to be as <b>fast</b> as possible. Good luck!</p>","response":0,"screen":"general_instructions","trial_type":"html-button-response","trial_index":2,"time_elapsed":3921,"internal_node_id":"0.0-2.0","participant_id":"t92d8ethzz"},{"success":true,"timeout":false,"failed_images":[],"failed_audio":[],"failed_video":[],"trial_type":"preload","trial_index":3,"time_elapsed":4195,"internal_node_id":"0.0-3.0-0.0","participant_id":"t92d8ethzz"},{"rt":1073,"stimulus":"<p><b>Part 1</b></p><p>In this part, two red circles will appear side by side on the screen.</p><p>Your task is to select which <b>red circle is bigger</b> in size as fast as you can, without making errors.</p><p>Press <b>the LEFT or the RIGHT arrow</b> to indicate which is the bigger <b>red circle.</b></p><div style='float: center'><img src='utils/stimuli_demo/Delboeuf_Demo.png' height='300'></img><p><img src='utils/answer/answer_leftright_keyboard.PNG' height='150'></img></p><p class='small'>In this example, the correct answer is the <b>LEFT arrow</b>.</p></div><p>Are you ready? <b>Press ENTER to start</b></p>","response":"enter","trial_type":"html-keyboard-response","trial_index":4,"time_elapsed":5272,"internal_node_id":"0.0-3.0-1.0","participant_id":"t92d8ethzz"},{"rt":null,"stimulus":"<div style=\"font-size:60px;\">+</div>","response":null,"screen":"fixation","trial_type":"html-keyboard-response","trial_index":5,"time_elapsed":6385,"internal_node_id":"0.0-3.0-2.0-0.0","participant_id":"t92d8ethzz","trial_duration":606},{"rt":473,"stimulus":"stimuli/Delboeuf_str0_diff-0.257154.png","response":"arrowright","screen":"Trial","block":"Delboeuf","correct_response":"arrowright","trial_type":"image-keyboard-response","trial_index":6,"time_elapsed":6861,"internal_node_id":"0.0-3.0-2.0-1.0","participant_id":"t92d8ethzz","prestimulus_duration":1113,"correct":true,"type":"Delboeuf","illusion_strength":0,"illusion_difference":-0.2571538461538462,"block_number":1,"trial_number":1},{"rt":null,"stimulus":"<div style=\"font-size:60px;\">+</div>","response":null,"screen":"fixation","trial_type":"html-keyboard-response","trial_index":7,"time_elapsed":7549,"internal_node_id":"0.0-3.0-2.0-0.1","participant_id":"t92d8ethzz","trial_duration":682},{"rt":229,"stimulus":"stimuli/Delboeuf_str0_diff0.001.png","response":"arrowleft","screen":"Trial","block":"Delboeuf","correct_response":"arrowleft","trial_type":"image-keyboard-response","trial_index":8,"time_elapsed":7781,"internal_node_id":"0.0-3.0-2.0-1.1","participant_id":"t92d8ethzz","prestimulus_duration":688,"correct":true,"type":"Delboeuf","illusion_strength":0,"illusion_difference":0.001,"block_number":1,"trial_number":2},{"rt":null,"stimulus":"<div style=\"font-size:60px;\">+</div>","response":null,"screen":"fixation","trial_type":"html-keyboard-response","trial_index":9,"time_elapsed":8594,"internal_node_id":"0.0-3.0-2.0-0.2","participant_id":"t92d8ethzz","trial_duration":807},{"rt":247,"stimulus":"stimuli/Delboeuf_str0_diff0.513308.png","response":"arrowright","screen":"Trial","block":"Delboeuf","correct_response":"arrowleft","trial_type":"image-keyboard-response","trial_index":10,"time_elapsed":8843,"internal_node_id":"0.0-3.0-2.0-1.2","participant_id":"t92d8ethzz","prestimulus_duration":813,"correct":false,"type":"Delboeuf","illusion_strength":0,"illusion_difference":0.5133076923076924,"block_number":1,"trial_number":3},{"rt":null,"stimulus":"<div style=\"font-size:60px;\">+</div>","response":null,"screen":"fixation","trial_type":"html-keyboard-response","trial_index":11,"time_elapsed":9628,"internal_node_id":"0.0-3.0-2.0-0.3","participant_id":"t92d8ethzz","trial_duration":779},{"rt":253,"stimulus":"stimuli/Delboeuf_str0_diff-0.948769.png","response":"arrowleft","screen":"Trial","block":"Delboeuf","correct_response":"arrowright","trial_type":"image-keyboard-response","trial_index":12,"time_elapsed":9883,"internal_node_id":"0.0-3.0-2.0-1.3","participant_id":"t92d8ethzz","prestimulus_duration":785,"correct":false,"type":"Delboeuf","illusion_strength":0,"illusion_difference":-0.9487692307692308,"block_number":1,"trial_number":4},{"rt":null,"stimulus":"<div style=\"font-size:60px;\">+</div>","response":null,"screen":"fixation","trial_type":"html-keyboard-response","trial_index":13,"time_elapsed":10461,"internal_node_id":"0.0-3.0-2.0-0.4","participant_id":"t92d8ethzz","trial_duration":571},{"rt":324,"stimulus":"stimuli/Delboeuf_str0_diff0.334.png","response":"arrowleft","screen":"Trial","block":"Delboeuf","correct_response":"arrowleft","trial_type":"image-keyboard-response","trial_index":14,"time_elapsed":10788,"internal_node_id":"0.0-3.0-2.0-1.4","participant_id":"t92d8ethzz","prestimulus_duration":578,"correct":true,"type":"Delboeuf","illusion_strength":0,"illusion_difference":0.334,"block_number":1,"trial_number":5},{"rt":null,"stimulus":"<div style=\"font-size:60px;\">+</div>","response":null,"screen":"fixation","trial_type":"html-keyboard-response","trial_index":15,"time_elapsed":11585,"internal_node_id":"0.0-3.0-2.0-0.5","participant_id":"t92d8ethzz","trial_duration":791},{"rt":325,"stimulus":"stimuli/Delboeuf_str0_diff0.692615.png","response":"arrowleft","screen":"Trial","block":"Delboeuf","correct_response":"arrowleft","trial_type":"image-keyboard-response","trial_index":16,"time_elapsed":11912,"internal_node_id":"0.0-3.0-2.0-1.5","participant_id":"t92d8ethzz","prestimulus_duration":797,"correct":true,"type":"Delboeuf","illusion_strength":0,"illusion_difference":0.6926153846153846,"block_number":1,"trial_number":6},{"rt":null,"stimulus":"<div style=\"font-size:60px;\">+</div>","response":null,"screen":"fixation","trial_type":"html-keyboard-response","trial_index":17,"time_elapsed":12505,"internal_node_id":"0.0-3.0-2.0-0.6","participant_id":"t92d8ethzz","trial_duration":589},{"rt":374,"stimulus":"stimuli/Delboeuf_str0_diff-0.974385.png","response":"arrowright","screen":"Trial","block":"Delboeuf","correct_response":"arrowright","trial_type":"image-keyboard-response","trial_index":18,"time_elapsed":12881,"internal_node_id":"0.0-3.0-2.0-1.6","participant_id":"t92d8ethzz","prestimulus_duration":593,"correct":true,"type":"Delboeuf","illusion_strength":0,"illusion_difference":-0.9743846153846154,"block_number":1,"trial_number":7},{"rt":null,"stimulus":"<div style=\"font-size:60px;\">+</div>","response":null,"screen":"fixation","trial_type":"html-keyboard-response","trial_index":19,"time_elapsed":13698,"internal_node_id":"0.0-3.0-2.0-0.7","participant_id":"t92d8ethzz","trial_duration":811},{"rt":381,"stimulus":"stimuli/Delboeuf_str0_diff-0.795077.png","response":"arrowright","screen":"Trial","block":"Delboeuf","correct_response":"arrowright","trial_type":"image-keyboard-response","trial_index":20,"time_elapsed":14083,"internal_node_id":"0.0-3.0-2.0-1.7","participant_id":"t92d8ethzz","prestimulus_duration":817,"correct":true,"type":"Delboeuf","illusion_strength":0,"illusion_difference":-0.7950769230769231,"block_number":1,"trial_number":8},{"rt":null,"stimulus":"<div style=\"font-size:60px;\">+</div>","response":null,"screen":"fixation","trial_type":"html-keyboard-response","trial_index":21,"time_elapsed":14732,"internal_node_id":"0.0-3.0-2.0-0.8","participant_id":"t92d8ethzz","trial_duration":643},{"rt":340,"stimulus":"stimuli/Delboeuf_str0_diff0.154692.png","response":"arrowright","screen":"Trial","block":"Delboeuf","correct_response":"arrowleft","trial_type":"image-keyboard-response","trial_index":22,"time_elapsed":15073,"internal_node_id":"0.0-3.0-2.0-1.8","participant_id":"t92d8ethzz","prestimulus_duration":649,"correct":false,"type":"Delboeuf","illusion_strength":0,"illusion_difference":0.15469230769230768,"block_number":1,"trial_number":9},{"rt":null,"stimulus":"<div style=\"font-size:60px;\">+</div>","response":null,"screen":"fixation","trial_type":"html-keyboard-response","trial_index":23,"time_elapsed":15937,"internal_node_id":"0.0-3.0-2.0-0.9","participant_id":"t92d8ethzz","trial_duration":857},{"rt":296,"stimulus":"stimuli/Delboeuf_str0_diff0.948769.png","response":"arrowleft","screen":"Trial","block":"Delboeuf","correct_response":"arrowleft","trial_type":"image-keyboard-response","trial_index":24,"time_elapsed":16235,"internal_node_id":"0.0-3.0-2.0-1.9","participant_id":"t92d8ethzz","prestimulus_duration":864,"correct":true,"type":"Delboeuf","illusion_strength":0,"illusion_difference":0.9487692307692308,"block_number":1,"trial_number":10},{"rt":null,"stimulus":"<div style=\"font-size:60px;\">+</div>","response":null,"screen":"fixation","trial_type":"html-keyboard-response","trial_index":25,"time_elapsed":16830,"internal_node_id":"0.0-3.0-2.0-0.10","participant_id":"t92d8ethzz","trial_duration":588},{"rt":472,"stimulus":"stimuli/Delboeuf_str0_diff-0.103462.png","response":"arrowright","screen":"Trial","block":"Delboeuf","correct_response":"arrowright","trial_type":"image-keyboard-response","trial_index":26,"time_elapsed":17304,"internal_node_id":"0.0-3.0-2.0-1.10","participant_id":"t92d8ethzz","prestimulus_duration":595,"correct":true,"type":"Delboeuf","illusion_strength":0,"illusion_difference":-0.10346153846153847,"block_number":1,"trial_number":11},{"rt":null,"stimulus":"<div style=\"font-size:60px;\">+</div>","response":null,"screen":"fixation","trial_type":"html-keyboard-response","trial_index":27,"time_elapsed":18295,"internal_node_id":"0.0-3.0-2.0-0.11","participant_id":"t92d8ethzz","trial_duration":984},{"rt":319,"stimulus":"stimuli/Delboeuf_str0_diff0.538923.png","response":"arrowleft","screen":"Trial","block":"Delboeuf","correct_response":"arrowleft","trial_type":"image-keyboard-response","trial_index":28,"time_elapsed":18616,"internal_node_id":"0.0-3.0-2.0-1.11","participant_id":"t92d8ethzz","prestimulus_duration":991,"correct":true,"type":"Delboeuf","illusion_strength":0,"illusion_difference":0.538923076923077,"block_number":1,"trial_number":12},{"rt":null,"stimulus":"<div style=\"font-size:60px;\">+</div>","response":null,"screen":"fixation","trial_type":"html-keyboard-response","trial_index":29,"time_elapsed":19519,"internal_node_id":"0.0-3.0-2.0-0.12","participant_id":"t92d8ethzz","trial_duration":897},{"rt":395,"stimulus":"stimuli/Delboeuf_str0_diff-0.538923.png","response":"arrowright","screen":"Trial","block":"Delboeuf","correct_response":"arrowright","trial_type":"image-keyboard-response","trial_index":30,"time_elapsed":19916,"internal_node_id":"0.0-3.0-2.0-1.12","participant_id":"t92d8ethzz","prestimulus_duration":903,"correct":true,"type":"Delboeuf","illusion_strength":0,"illusion_difference":-0.538923076923077,"block_number":1,"trial_number":13},{"rt":null,"stimulus":"<div style=\"font-size:60px;\">+</div>","response":null,"screen":"fixation","trial_type":"html-keyboard-response","trial_index":31,"time_elapsed":20720,"internal_node_id":"0.0-3.0-2.0-0.13","participant_id":"t92d8ethzz","trial_duration":798},{"rt":407,"stimulus":"stimuli/Delboeuf_str0_diff0.385231.png","response":"arrowleft","screen":"Trial","block":"Delboeuf","correct_response":"arrowleft","trial_type":"image-keyboard-response","trial_index":32,"time_elapsed":21129,"internal_node_id":"0.0-3.0-2.0-1.13","participant_id":"t92d8ethzz","prestimulus_duration":804,"correct":true,"type":"Delboeuf","illusion_strength":0,"illusion_difference":0.38523076923076927,"block_number":1,"trial_number":14},{"rt":null,"stimulus":"<div style=\"font-size:60px;\">+</div>","response":null,"screen":"fixation","trial_type":"html-keyboard-response","trial_index":33,"time_elapsed":21829,"internal_node_id":"0.0-3.0-2.0-0.14","participant_id":"t92d8ethzz","trial_duration":695},{"rt":1219,"stimulus":"stimuli/Delboeuf_str0_diff0.077846.png","response":"arrowright","screen":"Trial","block":"Delboeuf","correct_response":"arrowleft","trial_type":"image-keyboard-response","trial_index":34,"time_elapsed":23049,"internal_node_id":"0.0-3.0-2.0-1.14","participant_id":"t92d8ethzz","prestimulus_duration":700,"correct":false,"type":"Delboeuf","illusion_strength":0,"illusion_difference":0.07784615384615384,"block_number":1,"trial_number":15},{"rt":null,"stimulus":"<div style=\"font-size:60px;\">+</div>","response":null,"screen":"fixation","trial_type":"html-keyboard-response","trial_index":35,"time_elapsed":23823,"internal_node_id":"0.0-3.0-2.0-0.15","participant_id":"t92d8ethzz","trial_duration":768},{"rt":675,"stimulus":"stimuli/Delboeuf_str0_diff-0.615769.png","response":"arrowright","screen":"Trial","block":"Delboeuf","correct_response":"arrowright","trial_type":"image-keyboard-response","trial_index":36,"time_elapsed":24500,"internal_node_id":"0.0-3.0-2.0-1.15","participant_id":"t92d8ethzz","prestimulus_duration":774,"correct":true,"type":"Delboeuf","illusion_strength":0,"illusion_difference":-0.6157692307692307,"block_number":1,"trial_number":16},{"rt":null,"stimulus":"<div style=\"font-size:60px;\">+</div>","response":null,"screen":"fixation","trial_type":"html-keyboard-response","trial_index":37,"time_elapsed":25313,"internal_node_id":"0.0-3.0-2.0-0.16","participant_id":"t92d8ethzz","trial_duration":808},{"rt":3863,"stimulus":"stimuli/Delboeuf_str0_diff-0.410846.png","response":"arrowright","screen":"Trial","block":"Delboeuf","correct_response":"arrowright","trial_type":"image-keyboard-response","trial_index":38,"time_elapsed":29178,"internal_node_id":"0.0-3.0-2.0-1.16","participant_id":"t92d8ethzz","prestimulus_duration":813,"correct":true,"type":"Delboeuf","illusion_strength":0,"illusion_difference":-0.41084615384615386,"block_number":1,"trial_number":17},{"rt":null,"stimulus":"<div style=\"font-size:60px;\">+</div>","response":null,"screen":"fixation","trial_type":"html-keyboard-response","trial_index":39,"time_elapsed":29741,"internal_node_id":"0.0-3.0-2.0-0.17","participant_id":"t92d8ethzz","trial_duration":559},{"rt":409,"stimulus":"stimuli/Delboeuf_str0_diff0.871923.png","response":"arrowleft","screen":"Trial","block":"Delboeuf","correct_response":"arrowleft","trial_type":"image-keyboard-response","trial_index":40,"time_elapsed":30151,"internal_node_id":"0.0-3.0-2.0-1.17","participant_id":"t92d8ethzz","prestimulus_duration":563,"correct":true,"type":"Delboeuf","illusion_strength":0,"illusion_difference":0.8719230769230769,"block_number":1,"trial_number":18},{"rt":null,"stimulus":"<div style=\"font-size:60px;\">+</div>","response":null,"screen":"fixation","trial_type":"html-keyboard-response","trial_index":41,"time_elapsed":30705,"internal_node_id":"0.0-3.0-2.0-0.18","participant_id":"t92d8ethzz","trial_duration":548},{"rt":401,"stimulus":"stimuli/Delboeuf_str0_diff-0.513308.png","response":"arrowright","screen":"Trial","block":"Delboeuf","correct_response":"arrowright","trial_type":"image-keyboard-response","trial_index":42,"time_elapsed":31108,"internal_node_id":"0.0-3.0-2.0-1.18","participant_id":"t92d8ethzz","prestimulus_duration":554,"correct":true,"type":"Delboeuf","illusion_strength":0,"illusion_difference":-0.5133076923076924,"block_number":1,"trial_number":19},{"rt":null,"stimulus":"<div style=\"font-size:60px;\">+</div>","response":null,"screen":"fixation","trial_type":"html-keyboard-response","trial_index":43,"time_elapsed":31947,"internal_node_id":"0.0-3.0-2.0-0.19","participant_id":"t92d8ethzz","trial_duration":833},{"rt":345,"stimulus":"stimuli/Delboeuf_str0_diff0.308385.png","response":"arrowleft","screen":"Trial","block":"Delboeuf","correct_response":"arrowleft","trial_type":"image-keyboard-response","trial_index":44,"time_elapsed":32294,"internal_node_id":"0.0-3.0-2.0-1.19","participant_id":"t92d8ethzz","prestimulus_duration":839,"correct":true,"type":"Delboeuf","illusion_strength":0,"illusion_difference":0.30838461538461537,"block_number":1,"trial_number":20},{"rt":null,"stimulus":"<div style=\"font-size:60px;\">+</div>","response":null,"screen":"fixation","trial_type":"html-keyboard-response","trial_index":45,"time_elapsed":33204,"internal_node_id":"0.0-3.0-2.0-0.20","participant_id":"t92d8ethzz","trial_duration":904},{"rt":316,"stimulus":"stimuli/Delboeuf_str0_diff0.974385.png","response":"arrowleft","screen":"Trial","block":"Delboeuf","correct_response":"arrowleft","trial_type":"image-keyboard-response","trial_index":46,"time_elapsed":33522,"internal_node_id":"0.0-3.0-2.0-1.20","participant_id":"t92d8ethzz","prestimulus_duration":910,"correct":true,"type":"Delboeuf","illusion_strength":0,"illusion_difference":0.9743846153846154,"block_number":1,"trial_number":21},{"rt":null,"stimulus":"<div style=\"font-size:60px;\">+</div>","response":null,"screen":"fixation","trial_type":"html-keyboard-response","trial_index":47,"time_elapsed":34124,"internal_node_id":"0.0-3.0-2.0-0.21","participant_id":"t92d8ethzz","trial_duration":601},{"rt":302,"stimulus":"stimuli/Delboeuf_str0_diff0.103462.png","response":"arrowleft","screen":"Trial","block":"Delboeuf","correct_response":"arrowleft","trial_type":"image-keyboard-response","trial_index":48,"time_elapsed":34429,"internal_node_id":"0.0-3.0-2.0-1.21","participant_id":"t92d8ethzz","prestimulus_duration":602,"correct":true,"type":"Delboeuf","illusion_strength":0,"illusion_difference":0.10346153846153847,"block_number":1,"trial_number":22},{"rt":null,"stimulus":"<div style=\"font-size:60px;\">+</div>","response":null,"screen":"fixation","trial_type":"html-keyboard-response","trial_index":49,"time_elapsed":35328,"internal_node_id":"0.0-3.0-2.0-0.22","participant_id":"t92d8ethzz","trial_duration":894},{"rt":406,"stimulus":"stimuli/Delboeuf_str0_diff-0.667.png","response":"arrowright","screen":"Trial","block":"Delboeuf","correct_response":"arrowright","trial_type":"image-keyboard-response","trial_index":50,"time_elapsed":35736,"internal_node_id":"0.0-3.0-2.0-1.22","participant_id":"t92d8ethzz","prestimulus_duration":899,"correct":true,"type":"Delboeuf","illusion_strength":0,"illusion_difference":-0.667,"block_number":1,"trial_number":23},{"rt":null,"stimulus":"<div style=\"font-size:60px;\">+</div>","response":null,"screen":"fixation","trial_type":"html-keyboard-response","trial_index":51,"time_elapsed":36563,"internal_node_id":"0.0-3.0-2.0-0.23","participant_id":"t92d8ethzz","trial_duration":825},{"rt":563,"stimulus":"stimuli/Delboeuf_str0_diff-0.077846.png","response":"arrowleft","screen":"Trial","block":"Delboeuf","correct_response":"arrowright","trial_type":"image-keyboard-response","trial_index":52,"time_elapsed":37128,"internal_node_id":"0.0-3.0-2.0-1.23","participant_id":"t92d8ethzz","prestimulus_duration":827,"correct":false,"type":"Delboeuf","illusion_strength":0,"illusion_difference":-0.07784615384615384,"block_number":1,"trial_number":24},{"rt":null,"stimulus":"<div style=\"font-size:60px;\">+</div>","response":null,"screen":"fixation","trial_type":"html-keyboard-response","trial_index":53,"time_elapsed":37660,"internal_node_id":"0.0-3.0-2.0-0.24","participant_id":"t92d8ethzz","trial_duration":526},{"rt":327,"stimulus":"stimuli/Delboeuf_str0_diff-0.820692.png","response":"arrowleft","screen":"Trial","block":"Delboeuf","correct_response":"arrowright","trial_type":"image-keyboard-response","trial_index":54,"time_elapsed":37997,"internal_node_id":"0.0-3.0-2.0-1.24","participant_id":"t92d8ethzz","prestimulus_duration":532,"correct":false,"type":"Delboeuf","illusion_strength":0,"illusion_difference":-0.8206923076923077,"block_number":1,"trial_number":25},{"rt":null,"stimulus":"<div style=\"font-size:60px;\">+</div>","response":null,"screen":"fixation","trial_type":"html-keyboard-response","trial_index":55,"time_elapsed":38920,"internal_node_id":"0.0-3.0-2.0-0.25","participant_id":"t92d8ethzz","trial_duration":917},{"rt":364,"stimulus":"stimuli/Delboeuf_str0_diff-0.846308.png","response":"arrowright","screen":"Trial","block":"Delboeuf","correct_response":"arrowright","trial_type":"image-keyboard-response","trial_index":56,"time_elapsed":39287,"internal_node_id":"0.0-3.0-2.0-1.25","participant_id":"t92d8ethzz","prestimulus_duration":923,"correct":true,"type":"Delboeuf","illusion_strength":0,"illusion_difference":-0.8463076923076923,"block_number":1,"trial_number":26},{"rt":null,"stimulus":"<div style=\"font-size:60px;\">+</div>","response":null,"screen":"fixation","trial_type":"html-keyboard-response","trial_index":57,"time_elapsed":39837,"internal_node_id":"0.0-3.0-2.0-0.26","participant_id":"t92d8ethzz","trial_duration":543},{"rt":428,"stimulus":"stimuli/Delboeuf_str0_diff0.667.png","response":"arrowleft","screen":"Trial","block":"Delboeuf","correct_response":"arrowleft","trial_type":"image-keyboard-response","trial_index":58,"time_elapsed":40267,"internal_node_id":"0.0-3.0-2.0-1.26","participant_id":"t92d8ethzz","prestimulus_duration":550,"correct":true,"type":"Delboeuf","illusion_strength":0,"illusion_difference":0.667,"block_number":1,"trial_number":27},{"rt":null,"stimulus":"<div style=\"font-size:60px;\">+</div>","response":null,"screen":"fixation","trial_type":"html-keyboard-response","trial_index":59,"time_elapsed":41180,"internal_node_id":"0.0-3.0-2.0-0.27","participant_id":"t92d8ethzz","trial_duration":910},{"rt":346,"stimulus":"stimuli/Delboeuf_str0_diff0.410846.png","response":"arrowleft","screen":"Trial","block":"Delboeuf","correct_response":"arrowleft","trial_type":"image-keyboard-response","trial_index":60,"time_elapsed":41528,"internal_node_id":"0.0-3.0-2.0-1.27","participant_id":"t92d8ethzz","prestimulus_duration":913,"correct":true,"type":"Delboeuf","illusion_strength":0,"illusion_difference":0.41084615384615386,"block_number":1,"trial_number":28},{"rt":null,"stimulus":"<div style=\"font-size:60px;\">+</div>","response":null,"screen":"fixation","trial_type":"html-keyboard-response","trial_index":61,"time_elapsed":42154,"internal_node_id":"0.0-3.0-2.0-0.28","participant_id":"t92d8ethzz","trial_duration":619},{"rt":311,"stimulus":"stimuli/Delboeuf_str0_diff0.462077.png","response":"arrowleft","screen":"Trial","block":"Delboeuf","correct_response":"arrowleft","trial_type":"image-keyboard-response","trial_index":62,"time_elapsed":42467,"internal_node_id":"0.0-3.0-2.0-1.28","participant_id":"t92d8ethzz","prestimulus_duration":626,"correct":true,"type":"Delboeuf","illusion_strength":0,"illusion_difference":0.4620769230769231,"block_number":1,"trial_number":29},{"rt":null,"stimulus":"<div style=\"font-size:60px;\">+</div>","response":null,"screen":"fixation","trial_type":"html-keyboard-response","trial_index":63,"time_elapsed":43463,"internal_node_id":"0.0-3.0-2.0-0.29","participant_id":"t92d8ethzz","trial_duration":994},{"rt":374,"stimulus":"stimuli/Delboeuf_str0_diff-0.462077.png","response":"arrowright","screen":"Trial","block":"Delboeuf","correct_response":"arrowright","trial_type":"image-keyboard-response","trial_index":64,"time_elapsed":43839,"internal_node_id":"0.0-3.0-2.0-1.29","participant_id":"t92d8ethzz","prestimulus_duration":996,"correct":true,"type":"Delboeuf","illusion_strength":0,"illusion_difference":-0.4620769230769231,"block_number":1,"trial_number":30},{"rt":null,"stimulus":"<div style=\"font-size:60px;\">+</div>","response":null,"screen":"fixation","trial_type":"html-keyboard-response","trial_index":65,"time_elapsed":44721,"internal_node_id":"0.0-3.0-2.0-0.30","participant_id":"t92d8ethzz","trial_duration":875},{"rt":413,"stimulus":"stimuli/Delboeuf_str0_diff-0.743846.png","response":"arrowright","screen":"Trial","block":"Delboeuf","correct_response":"arrowright","trial_type":"image-keyboard-response","trial_index":66,"time_elapsed":45136,"internal_node_id":"0.0-3.0-2.0-1.30","participant_id":"t92d8ethzz","prestimulus_duration":882,"correct":true,"type":"Delboeuf","illusion_strength":0,"illusion_difference":-0.7438461538461538,"block_number":1,"trial_number":31},{"rt":null,"stimulus":"<div style=\"font-size:60px;\">+</div>","response":null,"screen":"fixation","trial_type":"html-keyboard-response","trial_index":67,"time_elapsed":46095,"internal_node_id":"0.0-3.0-2.0-0.31","participant_id":"t92d8ethzz","trial_duration":952},{"rt":543,"stimulus":"stimuli/Delboeuf_str0_diff-0.154692.png","response":"arrowleft","screen":"Trial","block":"Delboeuf","correct_response":"arrowright","trial_type":"image-keyboard-response","trial_index":68,"time_elapsed":46640,"internal_node_id":"0.0-3.0-2.0-1.31","participant_id":"t92d8ethzz","prestimulus_duration":959,"correct":false,"type":"Delboeuf","illusion_strength":0,"illusion_difference":-0.15469230769230768,"block_number":1,"trial_number":32},{"rt":null,"stimulus":"<div style=\"font-size:60px;\">+</div>","response":null,"screen":"fixation","trial_type":"html-keyboard-response","trial_index":69,"time_elapsed":47505,"internal_node_id":"0.0-3.0-2.0-0.32","participant_id":"t92d8ethzz","trial_duration":861},{"rt":380,"stimulus":"stimuli/Delboeuf_str0_diff0.231538.png","response":"arrowleft","screen":"Trial","block":"Delboeuf","correct_response":"arrowleft","trial_type":"image-keyboard-response","trial_index":70,"time_elapsed":47894,"internal_node_id":"0.0-3.0-2.0-1.32","participant_id":"t92d8ethzz","prestimulus_duration":865,"correct":true,"type":"Delboeuf","illusion_strength":0,"illusion_difference":0.23153846153846155,"block_number":1,"trial_number":33},{"rt":null,"stimulus":"<div style=\"font-size:60px;\">+</div>","response":null,"screen":"fixation","trial_type":"html-keyboard-response","trial_index":71,"time_elapsed":48829,"internal_node_id":"0.0-3.0-2.0-0.33","participant_id":"t92d8ethzz","trial_duration":929},{"rt":270,"stimulus":"stimuli/Delboeuf_str0_diff-0.385231.png","response":"arrowleft","screen":"Trial","block":"Delboeuf","correct_response":"arrowright","trial_type":"image-keyboard-response","trial_index":72,"time_elapsed":49101,"internal_node_id":"0.0-3.0-2.0-1.33","participant_id":"t92d8ethzz","prestimulus_duration":935,"correct":false,"type":"Delboeuf","illusion_strength":0,"illusion_difference":-0.38523076923076927,"block_number":1,"trial_number":34},{"rt":null,"stimulus":"<div style=\"font-size:60px;\">+</div>","response":null,"screen":"fixation","trial_type":"html-keyboard-response","trial_index":73,"time_elapsed":50018,"internal_node_id":"0.0-3.0-2.0-0.34","participant_id":"t92d8ethzz","trial_duration":913},{"rt":365,"stimulus":"stimuli/Delboeuf_str0_diff-0.334.png","response":"arrowright","screen":"Trial","block":"Delboeuf","correct_response":"arrowright","trial_type":"image-keyboard-response","trial_index":74,"time_elapsed":50385,"internal_node_id":"0.0-3.0-2.0-1.34","participant_id":"t92d8ethzz","prestimulus_duration":917,"correct":true,"type":"Delboeuf","illusion_strength":0,"illusion_difference":-0.334,"block_number":1,"trial_number":35},{"rt":null,"stimulus":"<div style=\"font-size:60px;\">+</div>","response":null,"screen":"fixation","trial_type":"html-keyboard-response","trial_index":75,"time_elapsed":51352,"internal_node_id":"0.0-3.0-2.0-0.35","participant_id":"t92d8ethzz","trial_duration":960},{"rt":397,"stimulus":"stimuli/Delboeuf_str0_diff0.436462.png","response":"arrowleft","screen":"Trial","block":"Delboeuf","correct_response":"arrowleft","trial_type":"image-keyboard-response","trial_index":76,"time_elapsed":51751,"internal_node_id":"0.0-3.0-2.0-1.35","participant_id":"t92d8ethzz","prestimulus_duration":967,"correct":true,"type":"Delboeuf","illusion_strength":0,"illusion_difference":0.43646153846153846,"block_number":1,"trial_number":36},{"rt":null,"stimulus":"<div style=\"font-size:60px;\">+</div>","response":null,"screen":"fixation","trial_type":"html-keyboard-response","trial_index":77,"time_elapsed":52363,"internal_node_id":"0.0-3.0-2.0-0.36","participant_id":"t92d8ethzz","trial_duration":607},{"rt":325,"stimulus":"stimuli/Delboeuf_str0_diff0.795077.png","response":"arrowleft","screen":"Trial","block":"Delboeuf","correct_response":"arrowleft","trial_type":"image-keyboard-response","trial_index":78,"time_elapsed":52690,"internal_node_id":"0.0-3.0-2.0-1.36","participant_id":"t92d8ethzz","prestimulus_duration":612,"correct":true,"type":"Delboeuf","illusion_strength":0,"illusion_difference":0.7950769230769231,"block_number":1,"trial_number":37},{"rt":null,"stimulus":"<div style=\"font-size:60px;\">+</div>","response":null,"screen":"fixation","trial_type":"html-keyboard-response","trial_index":79,"time_elapsed":53288,"internal_node_id":"0.0-3.0-2.0-0.37","participant_id":"t92d8ethzz","trial_duration":592},{"rt":306,"stimulus":"stimuli/Delboeuf_str0_diff0.846308.png","response":"arrowleft","screen":"Trial","block":"Delboeuf","correct_response":"arrowleft","trial_type":"image-keyboard-response","trial_index":80,"time_elapsed":53597,"internal_node_id":"0.0-3.0-2.0-1.37","participant_id":"t92d8ethzz","prestimulus_duration":598,"correct":true,"type":"Delboeuf","illusion_strength":0,"illusion_difference":0.8463076923076923,"block_number":1,"trial_number":38},{"rt":null,"stimulus":"<div style=\"font-size:60px;\">+</div>","response":null,"screen":"fixation","trial_type":"html-keyboard-response","trial_index":81,"time_elapsed":54546,"internal_node_id":"0.0-3.0-2.0-0.38","participant_id":"t92d8ethzz","trial_duration":944},{"rt":315,"stimulus":"stimuli/Delboeuf_str0_diff0.923154.png","response":"arrowleft","screen":"Trial","block":"Delboeuf","correct_response":"arrowleft","trial_type":"image-keyboard-response","trial_index":82,"time_elapsed":54864,"internal_node_id":"0.0-3.0-2.0-1.38","participant_id":"t92d8ethzz","prestimulus_duration":949,"correct":true,"type":"Delboeuf","illusion_strength":0,"illusion_difference":0.9231538461538462,"block_number":1,"trial_number":39},{"rt":null,"stimulus":"<div style=\"font-size:60px;\">+</div>","response":null,"screen":"fixation","trial_type":"html-keyboard-response","trial_index":83,"time_elapsed":55739,"internal_node_id":"0.0-3.0-2.0-0.39","participant_id":"t92d8ethzz","trial_duration":869},{"rt":330,"stimulus":"stimuli/Delboeuf_str0_diff0.641385.png","response":"arrowleft","screen":"Trial","block":"Delboeuf","correct_response":"arrowleft","trial_type":"image-keyboard-response","trial_index":84,"time_elapsed":56071,"internal_node_id":"0.0-3.0-2.0-1.39","participant_id":"t92d8ethzz","prestimulus_duration":875,"correct":true,"type":"Delboeuf","illusion_strength":0,"illusion_difference":0.6413846153846154,"block_number":1,"trial_number":40},{"rt":null,"stimulus":"<div style=\"font-size:60px;\">+</div>","response":null,"screen":"fixation","trial_type":"html-keyboard-response","trial_index":85,"time_elapsed":56696,"internal_node_id":"0.0-3.0-2.0-0.40","participant_id":"t92d8ethzz","trial_duration":621},{"rt":325,"stimulus":"stimuli/Delboeuf_str0_diff0.718231.png","response":"arrowleft","screen":"Trial","block":"Delboeuf","correct_response":"arrowleft","trial_type":"image-keyboard-response","trial_index":86,"time_elapsed":57031,"internal_node_id":"0.0-3.0-2.0-1.40","participant_id":"t92d8ethzz","prestimulus_duration":625,"correct":true,"type":"Delboeuf","illusion_strength":0,"illusion_difference":0.7182307692307692,"block_number":1,"trial_number":41},{"rt":null,"stimulus":"<div style=\"font-size:60px;\">+</div>","response":null,"screen":"fixation","trial_type":"html-keyboard-response","trial_index":87,"time_elapsed":57969,"internal_node_id":"0.0-3.0-2.0-0.41","participant_id":"t92d8ethzz","trial_duration":932},{"rt":92,"stimulus":"stimuli/Delboeuf_str0_diff-0.052231.png","response":"arrowleft","screen":"Trial","block":"Delboeuf","correct_response":"arrowright","trial_type":"image-keyboard-response","trial_index":88,"time_elapsed":58063,"internal_node_id":"0.0-3.0-2.0-1.41","participant_id":"t92d8ethzz","prestimulus_duration":938,"correct":false,"type":"Delboeuf","illusion_strength":0,"illusion_difference":-0.05223076923076923,"block_number":1,"trial_number":42},{"rt":null,"stimulus":"<div style=\"font-size:60px;\">+</div>","response":null,"screen":"fixation","trial_type":"html-keyboard-response","trial_index":89,"time_elapsed":58646,"internal_node_id":"0.0-3.0-2.0-0.42","participant_id":"t92d8ethzz","trial_duration":578},{"rt":992,"stimulus":"stimuli/Delboeuf_str0_diff-0.026615.png","response":"arrowleft","screen":"Trial","block":"Delboeuf","correct_response":"arrowright","trial_type":"image-keyboard-response","trial_index":90,"time_elapsed":59641,"internal_node_id":"0.0-3.0-2.0-1.42","participant_id":"t92d8ethzz","prestimulus_duration":583,"correct":false,"type":"Delboeuf","illusion_strength":0,"illusion_difference":-0.026615384615384617,"block_number":1,"trial_number":43},{"rt":null,"stimulus":"<div style=\"font-size:60px;\">+</div>","response":null,"screen":"fixation","trial_type":"html-keyboard-response","trial_index":91,"time_elapsed":60386,"internal_node_id":"0.0-3.0-2.0-0.43","participant_id":"t92d8ethzz","trial_duration":739},{"rt":468,"stimulus":"stimuli/Delboeuf_str0_diff1.0.png","response":"arrowleft","screen":"Trial","block":"Delboeuf","correct_response":"arrowleft","trial_type":"image-keyboard-response","trial_index":92,"time_elapsed":60855,"internal_node_id":"0.0-3.0-2.0-1.43","participant_id":"t92d8ethzz","prestimulus_duration":745,"correct":true,"type":"Delboeuf","illusion_strength":0,"illusion_difference":1,"block_number":1,"trial_number":44},{"rt":null,"stimulus":"<div style=\"font-size:60px;\">+</div>","response":null,"screen":"fixation","trial_type":"html-keyboard-response","trial_index":93,"time_elapsed":61563,"internal_node_id":"0.0-3.0-2.0-0.44","participant_id":"t92d8ethzz","trial_duration":705},{"rt":464,"stimulus":"stimuli/Delboeuf_str0_diff0.743846.png","response":"arrowleft","screen":"Trial","block":"Delboeuf","correct_response":"arrowleft","trial_type":"image-keyboard-response","trial_index":94,"time_elapsed":62030,"internal_node_id":"0.0-3.0-2.0-1.44","participant_id":"t92d8ethzz","prestimulus_duration":708,"correct":true,"type":"Delboeuf","illusion_strength":0,"illusion_difference":0.7438461538461538,"block_number":1,"trial_number":45},{"rt":null,"stimulus":"<div style=\"font-size:60px;\">+</div>","response":null,"screen":"fixation","trial_type":"html-keyboard-response","trial_index":95,"time_elapsed":62895,"internal_node_id":"0.0-3.0-2.0-0.45","participant_id":"t92d8ethzz","trial_duration":859},{"rt":533,"stimulus":"stimuli/Delboeuf_str0_diff-0.641385.png","response":"arrowright","screen":"Trial","block":"Delboeuf","correct_response":"arrowright","trial_type":"image-keyboard-response","trial_index":96,"time_elapsed":63430,"internal_node_id":"0.0-3.0-2.0-1.45","participant_id":"t92d8ethzz","prestimulus_duration":865,"correct":true,"type":"Delboeuf","illusion_strength":0,"illusion_difference":-0.6413846153846154,"block_number":1,"trial_number":46},{"rt":null,"stimulus":"<div style=\"font-size:60px;\">+</div>","response":null,"screen":"fixation","trial_type":"html-keyboard-response","trial_index":97,"time_elapsed":64088,"internal_node_id":"0.0-3.0-2.0-0.46","participant_id":"t92d8ethzz","trial_duration":651},{"rt":359,"stimulus":"stimuli/Delboeuf_str0_diff0.590154.png","response":"arrowright","screen":"Trial","block":"Delboeuf","correct_response":"arrowleft","trial_type":"image-keyboard-response","trial_index":98,"time_elapsed":64449,"internal_node_id":"0.0-3.0-2.0-1.46","participant_id":"t92d8ethzz","prestimulus_duration":658,"correct":false,"type":"Delboeuf","illusion_strength":0,"illusion_difference":0.5901538461538461,"block_number":1,"trial_number":47},{"rt":null,"stimulus":"<div style=\"font-size:60px;\">+</div>","response":null,"screen":"fixation","trial_type":"html-keyboard-response","trial_index":99,"time_elapsed":65403,"internal_node_id":"0.0-3.0-2.0-0.47","participant_id":"t92d8ethzz","trial_duration":947},{"rt":436,"stimulus":"stimuli/Delboeuf_str0_diff-0.282769.png","response":"arrowright","screen":"Trial","block":"Delboeuf","correct_response":"arrowright","trial_type":"image-keyboard-response","trial_index":100,"time_elapsed":65840,"internal_node_id":"0.0-3.0-2.0-1.47","participant_id":"t92d8ethzz","prestimulus_duration":954,"correct":true,"type":"Delboeuf","illusion_strength":0,"illusion_difference":-0.2827692307692308,"block_number":1,"trial_number":48},{"rt":null,"stimulus":"<div style=\"font-size:60px;\">+</div>","response":null,"screen":"fixation","trial_type":"html-keyboard-response","trial_index":101,"time_elapsed":66572,"internal_node_id":"0.0-3.0-2.0-0.48","participant_id":"t92d8ethzz","trial_duration":730},{"rt":580,"stimulus":"stimuli/Delboeuf_str0_diff0.282769.png","response":"arrowleft","screen":"Trial","block":"Delboeuf","correct_response":"arrowleft","trial_type":"image-keyboard-response","trial_index":102,"time_elapsed":67153,"internal_node_id":"0.0-3.0-2.0-1.48","participant_id":"t92d8ethzz","prestimulus_duration":732,"correct":true,"type":"Delboeuf","illusion_strength":0,"illusion_difference":0.2827692307692308,"block_number":1,"trial_number":49},{"rt":null,"stimulus":"<div style=\"font-size:60px;\">+</div>","response":null,"screen":"fixation","trial_type":"html-keyboard-response","trial_index":103,"time_elapsed":67706,"internal_node_id":"0.0-3.0-2.0-0.49","participant_id":"t92d8ethzz","trial_duration":551},{"rt":770,"stimulus":"stimuli/Delboeuf_str0_diff-0.205923.png","response":"arrowright","screen":"Trial","block":"Delboeuf","correct_response":"arrowright","trial_type":"image-keyboard-response","trial_index":104,"time_elapsed":68477,"internal_node_id":"0.0-3.0-2.0-1.49","participant_id":"t92d8ethzz","prestimulus_duration":553,"correct":true,"type":"Delboeuf","illusion_strength":0,"illusion_difference":-0.20592307692307693,"block_number":1,"trial_number":50},{"rt":null,"stimulus":"<div style=\"font-size:60px;\">+</div>","response":null,"screen":"fixation","trial_type":"html-keyboard-response","trial_index":105,"time_elapsed":69325,"internal_node_id":"0.0-3.0-2.0-0.50","participant_id":"t92d8ethzz","trial_duration":841},{"rt":389,"stimulus":"stimuli/Delboeuf_str0_diff0.897538.png","response":"arrowright","screen":"Trial","block":"Delboeuf","correct_response":"arrowleft","trial_type":"image-keyboard-response","trial_index":106,"time_elapsed":69717,"internal_node_id":"0.0-3.0-2.0-1.50","participant_id":"t92d8ethzz","prestimulus_duration":848,"correct":false,"type":"Delboeuf","illusion_strength":0,"illusion_difference":0.8975384615384616,"block_number":1,"trial_number":51},{"rt":null,"stimulus":"<div style=\"font-size:60px;\">+</div>","response":null,"screen":"fixation","trial_type":"html-keyboard-response","trial_index":107,"time_elapsed":70426,"internal_node_id":"0.0-3.0-2.0-0.51","participant_id":"t92d8ethzz","trial_duration":705},{"rt":519,"stimulus":"stimuli/Delboeuf_str0_diff-0.692615.png","response":"arrowright","screen":"Trial","block":"Delboeuf","correct_response":"arrowright","trial_type":"image-keyboard-response","trial_index":108,"time_elapsed":70948,"internal_node_id":"0.0-3.0-2.0-1.51","participant_id":"t92d8ethzz","prestimulus_duration":709,"correct":true,"type":"Delboeuf","illusion_strength":0,"illusion_difference":-0.6926153846153846,"block_number":1,"trial_number":52},{"rt":null,"stimulus":"<div style=\"font-size:60px;\">+</div>","response":null,"screen":"fixation","trial_type":"html-keyboard-response","trial_index":109,"time_elapsed":71785,"internal_node_id":"0.0-3.0-2.0-0.52","participant_id":"t92d8ethzz","trial_duration":832},{"rt":435,"stimulus":"stimuli/Delboeuf_str0_diff-1.0.png","response":"arrowright","screen":"Trial","block":"Delboeuf","correct_response":"arrowright","trial_type":"image-keyboard-response","trial_index":110,"time_elapsed":72222,"internal_node_id":"0.0-3.0-2.0-1.52","participant_id":"t92d8ethzz","prestimulus_duration":837,"correct":true,"type":"Delboeuf","illusion_strength":0,"illusion_difference":-1,"block_number":1,"trial_number":53},{"rt":null,"stimulus":"<div style=\"font-size:60px;\">+</div>","response":null,"screen":"fixation","trial_type":"html-keyboard-response","trial_index":111,"time_elapsed":72980,"internal_node_id":"0.0-3.0-2.0-0.53","participant_id":"t92d8ethzz","trial_duration":754},{"rt":441,"stimulus":"stimuli/Delboeuf_str0_diff-0.769462.png","response":"arrowright","screen":"Trial","block":"Delboeuf","correct_response":"arrowright","trial_type":"image-keyboard-response","trial_index":112,"time_elapsed":73423,"internal_node_id":"0.0-3.0-2.0-1.53","participant_id":"t92d8ethzz","prestimulus_duration":758,"correct":true,"type":"Delboeuf","illusion_strength":0,"illusion_difference":-0.7694615384615385,"block_number":1,"trial_number":54},{"rt":null,"stimulus":"<div style=\"font-size:60px;\">+</div>","response":null,"screen":"fixation","trial_type":"html-keyboard-response","trial_index":113,"time_elapsed":74135,"internal_node_id":"0.0-3.0-2.0-0.54","participant_id":"t92d8ethzz","trial_duration":706},{"rt":606,"stimulus":"stimuli/Delboeuf_str0_diff0.564538.png","response":"arrowleft","screen":"Trial","block":"Delboeuf","correct_response":"arrowleft","trial_type":"image-keyboard-response","trial_index":114,"time_elapsed":74743,"internal_node_id":"0.0-3.0-2.0-1.54","participant_id":"t92d8ethzz","prestimulus_duration":712,"correct":true,"type":"Delboeuf","illusion_strength":0,"illusion_difference":0.5645384615384615,"block_number":1,"trial_number":55},{"rt":null,"stimulus":"<div style=\"font-size:60px;\">+</div>","response":null,"screen":"fixation","trial_type":"html-keyboard-response","trial_index":115,"time_elapsed":75580,"internal_node_id":"0.0-3.0-2.0-0.55","participant_id":"t92d8ethzz","trial_duration":826},{"rt":483,"stimulus":"stimuli/Delboeuf_str0_diff-0.180308.png","response":"arrowright","screen":"Trial","block":"Delboeuf","correct_response":"arrowright","trial_type":"image-keyboard-response","trial_index":116,"time_elapsed":76066,"internal_node_id":"0.0-3.0-2.0-1.55","participant_id":"t92d8ethzz","prestimulus_duration":837,"correct":true,"type":"Delboeuf","illusion_strength":0,"illusion_difference":-0.1803076923076923,"block_number":1,"trial_number":56},{"rt":null,"stimulus":"<div style=\"font-size:60px;\">+</div>","response":null,"screen":"fixation","trial_type":"html-keyboard-response","trial_index":117,"time_elapsed":76938,"internal_node_id":"0.0-3.0-2.0-0.56","participant_id":"t92d8ethzz","trial_duration":865},{"rt":464,"stimulus":"stimuli/Delboeuf_str0_diff0.487692.png","response":"arrowleft","screen":"Trial","block":"Delboeuf","correct_response":"arrowleft","trial_type":"image-keyboard-response","trial_index":118,"time_elapsed":77403,"internal_node_id":"0.0-3.0-2.0-1.56","participant_id":"t92d8ethzz","prestimulus_duration":872,"correct":true,"type":"Delboeuf","illusion_strength":0,"illusion_difference":0.4876923076923077,"block_number":1,"trial_number":57},{"rt":null,"stimulus":"<div style=\"font-size:60px;\">+</div>","response":null,"screen":"fixation","trial_type":"html-keyboard-response","trial_index":119,"time_elapsed":77936,"internal_node_id":"0.0-3.0-2.0-0.57","participant_id":"t92d8ethzz","trial_duration":526},{"rt":448,"stimulus":"stimuli/Delboeuf_str0_diff-0.231538.png","response":"arrowright","screen":"Trial","block":"Delboeuf","correct_response":"arrowright","trial_type":"image-keyboard-response","trial_index":120,"time_elapsed":78386,"internal_node_id":"0.0-3.0-2.0-1.57","participant_id":"t92d8ethzz","prestimulus_duration":533,"correct":true,"type":"Delboeuf","illusion_strength":0,"illusion_difference":-0.23153846153846155,"block_number":1,"trial_number":58},{"rt":null,"stimulus":"<div style=\"font-size:60px;\">+</div>","response":null,"screen":"fixation","trial_type":"html-keyboard-response","trial_index":121,"time_elapsed":79221,"internal_node_id":"0.0-3.0-2.0-0.58","participant_id":"t92d8ethzz","trial_duration":829},{"rt":495,"stimulus":"stimuli/Delboeuf_str0_diff-0.590154.png","response":"arrowright","screen":"Trial","block":"Delboeuf","correct_response":"arrowright","trial_type":"image-keyboard-response","trial_index":122,"time_elapsed":79719,"internal_node_id":"0.0-3.0-2.0-1.58","participant_id":"t92d8ethzz","prestimulus_duration":835,"correct":true,"type":"Delboeuf","illusion_strength":0,"illusion_difference":-0.5901538461538461,"block_number":1,"trial_number":59},{"rt":null,"stimulus":"<div style=\"font-size:60px;\">+</div>","response":null,"screen":"fixation","trial_type":"html-keyboard-response","trial_index":123,"time_elapsed":80663,"internal_node_id":"0.0-3.0-2.0-0.59","participant_id":"t92d8ethzz","trial_duration":941},{"rt":366,"stimulus":"stimuli/Delboeuf_str0_diff-0.308385.png","response":"arrowright","screen":"Trial","block":"Delboeuf","correct_response":"arrowright","trial_type":"image-keyboard-response","trial_index":124,"time_elapsed":81032,"internal_node_id":"0.0-3.0-2.0-1.59","participant_id":"t92d8ethzz","prestimulus_duration":944,"correct":true,"type":"Delboeuf","illusion_strength":0,"illusion_difference":-0.30838461538461537,"block_number":1,"trial_number":60},{"rt":null,"stimulus":"<div style=\"font-size:60px;\">+</div>","response":null,"screen":"fixation","trial_type":"html-keyboard-response","trial_index":125,"time_elapsed":81811,"internal_node_id":"0.0-3.0-2.0-0.60","participant_id":"t92d8ethzz","trial_duration":773},{"rt":426,"stimulus":"stimuli/Delboeuf_str0_diff0.359615.png","response":"arrowleft","screen":"Trial","block":"Delboeuf","correct_response":"arrowleft","trial_type":"image-keyboard-response","trial_index":126,"time_elapsed":82239,"internal_node_id":"0.0-3.0-2.0-1.60","participant_id":"t92d8ethzz","prestimulus_duration":779,"correct":true,"type":"Delboeuf","illusion_strength":0,"illusion_difference":0.3596153846153846,"block_number":1,"trial_number":61},{"rt":null,"stimulus":"<div style=\"font-size:60px;\">+</div>","response":null,"screen":"fixation","trial_type":"html-keyboard-response","trial_index":127,"time_elapsed":83130,"internal_node_id":"0.0-3.0-2.0-0.61","participant_id":"t92d8ethzz","trial_duration":888},{"rt":543,"stimulus":"stimuli/Delboeuf_str0_diff-0.001.png","response":"arrowright","screen":"Trial","block":"Delboeuf","correct_response":"arrowright","trial_type":"image-keyboard-response","trial_index":128,"time_elapsed":83675,"internal_node_id":"0.0-3.0-2.0-1.61","participant_id":"t92d8ethzz","prestimulus_duration":891,"correct":true,"type":"Delboeuf","illusion_strength":0,"illusion_difference":-0.001,"block_number":1,"trial_number":62},{"rt":null,"stimulus":"<div style=\"font-size:60px;\">+</div>","response":null,"screen":"fixation","trial_type":"html-keyboard-response","trial_index":129,"time_elapsed":84418,"internal_node_id":"0.0-3.0-2.0-0.62","participant_id":"t92d8ethzz","trial_duration":740},{"rt":460,"stimulus":"stimuli/Delboeuf_str0_diff-0.897538.png","response":"arrowright","screen":"Trial","block":"Delboeuf","correct_response":"arrowright","trial_type":"image-keyboard-response","trial_index":130,"time_elapsed":84880,"internal_node_id":"0.0-3.0-2.0-1.62","participant_id":"t92d8ethzz","prestimulus_duration":743,"correct":true,"type":"Delboeuf","illusion_strength":0,"illusion_difference":-0.8975384615384616,"block_number":1,"trial_number":63},{"rt":null,"stimulus":"<div style=\"font-size:60px;\">+</div>","response":null,"screen":"fixation","trial_type":"html-keyboard-response","trial_index":131,"time_elapsed":85496,"internal_node_id":"0.0-3.0-2.0-0.63","participant_id":"t92d8ethzz","trial_duration":609},{"rt":424,"stimulus":"stimuli/Delboeuf_str0_diff0.180308.png","response":"arrowleft","screen":"Trial","block":"Delboeuf","correct_response":"arrowleft","trial_type":"image-keyboard-response","trial_index":132,"time_elapsed":85922,"internal_node_id":"0.0-3.0-2.0-1.63","participant_id":"t92d8ethzz","prestimulus_duration":616,"correct":true,"type":"Delboeuf","illusion_strength":0,"illusion_difference":0.1803076923076923,"block_number":1,"trial_number":64},{"rt":null,"stimulus":"<div style=\"font-size:60px;\">+</div>","response":null,"screen":"fixation","trial_type":"html-keyboard-response","trial_index":133,"time_elapsed":86547,"internal_node_id":"0.0-3.0-2.0-0.64","participant_id":"t92d8ethzz","trial_duration":621},{"rt":410,"stimulus":"stimuli/Delboeuf_str0_diff0.205923.png","response":"arrowright","screen":"Trial","block":"Delboeuf","correct_response":"arrowleft","trial_type":"image-keyboard-response","trial_index":134,"time_elapsed":86959,"internal_node_id":"0.0-3.0-2.0-1.64","participant_id":"t92d8ethzz","prestimulus_duration":625,"correct":false,"type":"Delboeuf","illusion_strength":0,"illusion_difference":0.20592307692307693,"block_number":1,"trial_number":65},{"rt":null,"stimulus":"<div style=\"font-size:60px;\">+</div>","response":null,"screen":"fixation","trial_type":"html-keyboard-response","trial_index":135,"time_elapsed":87794,"internal_node_id":"0.0-3.0-2.0-0.65","participant_id":"t92d8ethzz","trial_duration":828},{"rt":425,"stimulus":"stimuli/Delboeuf_str0_diff0.257154.png","response":"arrowleft","screen":"Trial","block":"Delboeuf","correct_response":"arrowleft","trial_type":"image-keyboard-response","trial_index":136,"time_elapsed":88221,"internal_node_id":"0.0-3.0-2.0-1.65","participant_id":"t92d8ethzz","prestimulus_duration":835,"correct":true,"type":"Delboeuf","illusion_strength":0,"illusion_difference":0.2571538461538462,"block_number":1,"trial_number":66},{"rt":null,"stimulus":"<div style=\"font-size:60px;\">+</div>","response":null,"screen":"fixation","trial_type":"html-keyboard-response","trial_index":137,"time_elapsed":89017,"internal_node_id":"0.0-3.0-2.0-0.66","participant_id":"t92d8ethzz","trial_duration":792},{"rt":500,"stimulus":"stimuli/Delboeuf_str0_diff-0.871923.png","response":"arrowright","screen":"Trial","block":"Delboeuf","correct_response":"arrowright","trial_type":"image-keyboard-response","trial_index":138,"time_elapsed":89519,"internal_node_id":"0.0-3.0-2.0-1.66","participant_id":"t92d8ethzz","prestimulus_duration":796,"correct":true,"type":"Delboeuf","illusion_strength":0,"illusion_difference":-0.8719230769230769,"block_number":1,"trial_number":67},{"rt":null,"stimulus":"<div style=\"font-size:60px;\">+</div>","response":null,"screen":"fixation","trial_type":"html-keyboard-response","trial_index":139,"time_elapsed":90414,"internal_node_id":"0.0-3.0-2.0-0.67","participant_id":"t92d8ethzz","trial_duration":891},{"rt":454,"stimulus":"stimuli/Delboeuf_str0_diff0.769462.png","response":"arrowleft","screen":"Trial","block":"Delboeuf","correct_response":"arrowleft","trial_type":"image-keyboard-response","trial_index":140,"time_elapsed":90870,"internal_node_id":"0.0-3.0-2.0-1.67","participant_id":"t92d8ethzz","prestimulus_duration":895,"correct":true,"type":"Delboeuf","illusion_strength":0,"illusion_difference":0.7694615384615385,"block_number":1,"trial_number":68},{"rt":null,"stimulus":"<div style=\"font-size:60px;\">+</div>","response":null,"screen":"fixation","trial_type":"html-keyboard-response","trial_index":141,"time_elapsed":91843,"internal_node_id":"0.0-3.0-2.0-0.68","participant_id":"t92d8ethzz","trial_duration":969},{"rt":489,"stimulus":"stimuli/Delboeuf_str0_diff0.052231.png","response":"arrowleft","screen":"Trial","block":"Delboeuf","correct_response":"arrowleft","trial_type":"image-keyboard-response","trial_index":142,"time_elapsed":92335,"internal_node_id":"0.0-3.0-2.0-1.68","participant_id":"t92d8ethzz","prestimulus_duration":973,"correct":true,"type":"Delboeuf","illusion_strength":0,"illusion_difference":0.05223076923076923,"block_number":1,"trial_number":69},{"rt":null,"stimulus":"<div style=\"font-size:60px;\">+</div>","response":null,"screen":"fixation","trial_type":"html-keyboard-response","trial_index":143,"time_elapsed":93074,"internal_node_id":"0.0-3.0-2.0-0.69","participant_id":"t92d8ethzz","trial_duration":736},{"rt":310,"stimulus":"stimuli/Delboeuf_str0_diff-0.129077.png","response":"arrowleft","screen":"Trial","block":"Delboeuf","correct_response":"arrowright","trial_type":"image-keyboard-response","trial_index":144,"time_elapsed":93385,"internal_node_id":"0.0-3.0-2.0-1.69","participant_id":"t92d8ethzz","prestimulus_duration":739,"correct":false,"type":"Delboeuf","illusion_strength":0,"illusion_difference":-0.1290769230769231,"block_number":1,"trial_number":70},{"rt":null,"stimulus":"<div style=\"font-size:60px;\">+</div>","response":null,"screen":"fixation","trial_type":"html-keyboard-response","trial_index":145,"time_elapsed":93914,"internal_node_id":"0.0-3.0-2.0-0.70","participant_id":"t92d8ethzz","trial_duration":523},{"rt":451,"stimulus":"stimuli/Delboeuf_str0_diff-0.923154.png","response":"arrowright","screen":"Trial","block":"Delboeuf","correct_response":"arrowright","trial_type":"image-keyboard-response","trial_index":146,"time_elapsed":94367,"internal_node_id":"0.0-3.0-2.0-1.70","participant_id":"t92d8ethzz","prestimulus_duration":529,"correct":true,"type":"Delboeuf","illusion_strength":0,"illusion_difference":-0.9231538461538462,"block_number":1,"trial_number":71},{"rt":null,"stimulus":"<div style=\"font-size:60px;\">+</div>","response":null,"screen":"fixation","trial_type":"html-keyboard-response","trial_index":147,"time_elapsed":95158,"internal_node_id":"0.0-3.0-2.0-0.71","participant_id":"t92d8ethzz","trial_duration":785},{"rt":468,"stimulus":"stimuli/Delboeuf_str0_diff-0.564538.png","response":"arrowright","screen":"Trial","block":"Delboeuf","correct_response":"arrowright","trial_type":"image-keyboard-response","trial_index":148,"time_elapsed":95629,"internal_node_id":"0.0-3.0-2.0-1.71","participant_id":"t92d8ethzz","prestimulus_duration":791,"correct":true,"type":"Delboeuf","illusion_strength":0,"illusion_difference":-0.5645384615384615,"block_number":1,"trial_number":72},{"rt":null,"stimulus":"<div style=\"font-size:60px;\">+</div>","response":null,"screen":"fixation","trial_type":"html-keyboard-response","trial_index":149,"time_elapsed":96260,"internal_node_id":"0.0-3.0-2.0-0.72","participant_id":"t92d8ethzz","trial_duration":625},{"rt":421,"stimulus":"stimuli/Delboeuf_str0_diff0.129077.png","response":"arrowright","screen":"Trial","block":"Delboeuf","correct_response":"arrowleft","trial_type":"image-keyboard-response","trial_index":150,"time_elapsed":96683,"internal_node_id":"0.0-3.0-2.0-1.72","participant_id":"t92d8ethzz","prestimulus_duration":631,"correct":false,"type":"Delboeuf","illusion_strength":0,"illusion_difference":0.1290769230769231,"block_number":1,"trial_number":73},{"rt":null,"stimulus":"<div style=\"font-size:60px;\">+</div>","response":null,"screen":"fixation","trial_type":"html-keyboard-response","trial_index":151,"time_elapsed":97558,"internal_node_id":"0.0-3.0-2.0-0.73","participant_id":"t92d8ethzz","trial_duration":868},{"rt":420,"stimulus":"stimuli/Delboeuf_str0_diff-0.436462.png","response":"arrowright","screen":"Trial","block":"Delboeuf","correct_response":"arrowright","trial_type":"image-keyboard-response","trial_index":152,"time_elapsed":97980,"internal_node_id":"0.0-3.0-2.0-1.73","participant_id":"t92d8ethzz","prestimulus_duration":875,"correct":true,"type":"Delboeuf","illusion_strength":0,"illusion_difference":-0.43646153846153846,"block_number":1,"trial_number":74},{"rt":null,"stimulus":"<div style=\"font-size:60px;\">+</div>","response":null,"screen":"fixation","trial_type":"html-keyboard-response","trial_index":153,"time_elapsed":98797,"internal_node_id":"0.0-3.0-2.0-0.74","participant_id":"t92d8ethzz","trial_duration":815},{"rt":379,"stimulus":"stimuli/Delboeuf_str0_diff0.820692.png","response":"arrowleft","screen":"Trial","block":"Delboeuf","correct_response":"arrowleft","trial_type":"image-keyboard-response","trial_index":154,"time_elapsed":99178,"internal_node_id":"0.0-3.0-2.0-1.74","participant_id":"t92d8ethzz","prestimulus_duration":817,"correct":true,"type":"Delboeuf","illusion_strength":0,"illusion_difference":0.8206923076923077,"block_number":1,"trial_number":75},{"rt":null,"stimulus":"<div style=\"font-size:60px;\">+</div>","response":null,"screen":"fixation","trial_type":"html-keyboard-response","trial_index":155,"time_elapsed":99706,"internal_node_id":"0.0-3.0-2.0-0.75","participant_id":"t92d8ethzz","trial_duration":527},{"rt":336,"stimulus":"stimuli/Delboeuf_str0_diff-0.359615.png","response":"arrowright","screen":"Trial","block":"Delboeuf","correct_response":"arrowright","trial_type":"image-keyboard-response","trial_index":156,"time_elapsed":100044,"internal_node_id":"0.0-3.0-2.0-1.75","participant_id":"t92d8ethzz","prestimulus_duration":528,"correct":true,"type":"Delboeuf","illusion_strength":0,"illusion_difference":-0.3596153846153846,"block_number":1,"trial_number":76},{"rt":null,"stimulus":"<div style=\"font-size:60px;\">+</div>","response":null,"screen":"fixation","trial_type":"html-keyboard-response","trial_index":157,"time_elapsed":100955,"internal_node_id":"0.0-3.0-2.0-0.76","participant_id":"t92d8ethzz","trial_duration":904},{"rt":419,"stimulus":"stimuli/Delboeuf_str0_diff-0.487692.png","response":"arrowright","screen":"Trial","block":"Delboeuf","correct_response":"arrowright","trial_type":"image-keyboard-response","trial_index":158,"time_elapsed":101376,"internal_node_id":"0.0-3.0-2.0-1.76","participant_id":"t92d8ethzz","prestimulus_duration":911,"correct":true,"type":"Delboeuf","illusion_strength":0,"illusion_difference":-0.4876923076923077,"block_number":1,"trial_number":77},{"rt":null,"stimulus":"<div style=\"font-size:60px;\">+</div>","response":null,"screen":"fixation","trial_type":"html-keyboard-response","trial_index":159,"time_elapsed":102247,"internal_node_id":"0.0-3.0-2.0-0.77","participant_id":"t92d8ethzz","trial_duration":865},{"rt":418,"stimulus":"stimuli/Delboeuf_str0_diff0.615769.png","response":"arrowleft","screen":"Trial","block":"Delboeuf","correct_response":"arrowleft","trial_type":"image-keyboard-response","trial_index":160,"time_elapsed":102667,"internal_node_id":"0.0-3.0-2.0-1.77","participant_id":"t92d8ethzz","prestimulus_duration":871,"correct":true,"type":"Delboeuf","illusion_strength":0,"illusion_difference":0.6157692307692307,"block_number":1,"trial_number":78},{"rt":null,"stimulus":"<div style=\"font-size:60px;\">+</div>","response":null,"screen":"fixation","trial_type":"html-keyboard-response","trial_index":161,"time_elapsed":103513,"internal_node_id":"0.0-3.0-2.0-0.78","participant_id":"t92d8ethzz","trial_duration":839},{"rt":430,"stimulus":"stimuli/Delboeuf_str0_diff0.026615.png","response":"arrowleft","screen":"Trial","block":"Delboeuf","correct_response":"arrowleft","trial_type":"image-keyboard-response","trial_index":162,"time_elapsed":103945,"internal_node_id":"0.0-3.0-2.0-1.78","participant_id":"t92d8ethzz","prestimulus_duration":846,"correct":true,"type":"Delboeuf","illusion_strength":0,"illusion_difference":0.026615384615384617,"block_number":1,"trial_number":79},{"rt":null,"stimulus":"<div style=\"font-size:60px;\">+</div>","response":null,"screen":"fixation","trial_type":"html-keyboard-response","trial_index":163,"time_elapsed":104606,"internal_node_id":"0.0-3.0-2.0-0.79","participant_id":"t92d8ethzz","trial_duration":654},{"rt":331,"stimulus":"stimuli/Delboeuf_str0_diff-0.718231.png","response":"arrowright","screen":"Trial","block":"Delboeuf","correct_response":"arrowright","trial_type":"image-keyboard-response","trial_index":164,"time_elapsed":104939,"internal_node_id":"0.0-3.0-2.0-1.79","participant_id":"t92d8ethzz","prestimulus_duration":661,"correct":true,"type":"Delboeuf","illusion_strength":0,"illusion_difference":-0.7182307692307692,"block_number":1,"trial_number":80},{"rt":4056,"stimulus":"<p>Great job!</p><p>Can you do better in the next block?</p>","response":0,"screen":"block_results","trial_type":"html-button-response","trial_index":165,"time_elapsed":109004,"internal_node_id":"0.0-3.0-3.0","participant_id":"t92d8ethzz"},{"success":true,"timeout":false,"failed_images":[],"failed_audio":[],"failed_video":[],"trial_type":"preload","trial_index":166,"time_elapsed":109293,"internal_node_id":"0.0-4.0-0.0","participant_id":"t92d8ethzz"},{"rt":1614,"stimulus":"<p><b>Part 2</b></p><p>In this part, two horizontal red lines will appear one above the other.</p><p>Your task is to select which <b>line is longer</b> in length as fast as you can, without making errors.</p><p>Press <b>the UP or the DOWN arrow</b> to indicate where is the longer <b>red line.</b></p><div style='float: center'><img src='utils/stimuli_demo/MullerLyer_Demo.png' height='300'></img><p><img src='utils/answer/answer_updown_keyboard.PNG' height='150'></img></p><p class='small'>In this example, the correct answer is the <b>UP arrow</b>.</p></div><p>Are you ready? <b>Press ENTER to start</b></p>","response":"enter","trial_type":"html-keyboard-response","trial_index":167,"time_elapsed":110909,"internal_node_id":"0.0-4.0-1.0","participant_id":"t92d8ethzz"},{"rt":null,"stimulus":"<div style=\"font-size:60px;\">+</div>","response":null,"screen":"fixation","trial_type":"html-keyboard-response","trial_index":168,"time_elapsed":112203,"internal_node_id":"0.0-4.0-2.0-0.0","participant_id":"t92d8ethzz","trial_duration":790},{"rt":1079,"stimulus":"stimuli/MullerLyer_str0_diff-0.059846.png","response":"arrowup","screen":"Trial","block":"MullerLyer","correct_response":"arrowdown","trial_type":"image-keyboard-response","trial_index":169,"time_elapsed":113284,"internal_node_id":"0.0-4.0-2.0-1.0","participant_id":"t92d8ethzz","prestimulus_duration":1294,"correct":false,"type":"MullerLyer","illusion_strength":0,"illusion_difference":-0.05984615384615385,"block_number":2,"trial_number":1},{"rt":null,"stimulus":"<div style=\"font-size:60px;\">+</div>","response":null,"screen":"fixation","trial_type":"html-keyboard-response","trial_index":170,"time_elapsed":113964,"internal_node_id":"0.0-4.0-2.0-0.1","participant_id":"t92d8ethzz","trial_duration":673},{"rt":481,"stimulus":"stimuli/MullerLyer_str0_diff0.342308.png","response":"arrowup","screen":"Trial","block":"MullerLyer","correct_response":"arrowup","trial_type":"image-keyboard-response","trial_index":171,"time_elapsed":114447,"internal_node_id":"0.0-4.0-2.0-1.1","participant_id":"t92d8ethzz","prestimulus_duration":680,"correct":true,"type":"MullerLyer","illusion_strength":0,"illusion_difference":0.3423076923076923,"block_number":2,"trial_number":2},{"rt":null,"stimulus":"<div style=\"font-size:60px;\">+</div>","response":null,"screen":"fixation","trial_type":"html-keyboard-response","trial_index":172,"time_elapsed":114976,"internal_node_id":"0.0-4.0-2.0-0.2","participant_id":"t92d8ethzz","trial_duration":525},{"rt":422,"stimulus":"stimuli/MullerLyer_str0_diff-0.224615.png","response":"arrowdown","screen":"Trial","block":"MullerLyer","correct_response":"arrowdown","trial_type":"image-keyboard-response","trial_index":173,"time_elapsed":115401,"internal_node_id":"0.0-4.0-2.0-1.2","participant_id":"t92d8ethzz","prestimulus_duration":529,"correct":true,"type":"MullerLyer","illusion_strength":0,"illusion_difference":-0.22461538461538463,"block_number":2,"trial_number":3},{"rt":null,"stimulus":"<div style=\"font-size:60px;\">+</div>","response":null,"screen":"fixation","trial_type":"html-keyboard-response","trial_index":174,"time_elapsed":116255,"internal_node_id":"0.0-4.0-2.0-0.3","participant_id":"t92d8ethzz","trial_duration":848},{"rt":382,"stimulus":"stimuli/MullerLyer_str0_diff-0.189308.png","response":"arrowup","screen":"Trial","block":"MullerLyer","correct_response":"arrowdown","trial_type":"image-keyboard-response","trial_index":175,"time_elapsed":116640,"internal_node_id":"0.0-4.0-2.0-1.3","participant_id":"t92d8ethzz","prestimulus_duration":854,"correct":false,"type":"MullerLyer","illusion_strength":0,"illusion_difference":-0.18930769230769232,"block_number":2,"trial_number":4},{"rt":null,"stimulus":"<div style=\"font-size:60px;\">+</div>","response":null,"screen":"fixation","trial_type":"html-keyboard-response","trial_index":176,"time_elapsed":117637,"internal_node_id":"0.0-4.0-2.0-0.4","participant_id":"t92d8ethzz","trial_duration":991},{"rt":444,"stimulus":"stimuli/MullerLyer_str0_diff0.412923.png","response":"arrowup","screen":"Trial","block":"MullerLyer","correct_response":"arrowup","trial_type":"image-keyboard-response","trial_index":177,"time_elapsed":118083,"internal_node_id":"0.0-4.0-2.0-1.4","participant_id":"t92d8ethzz","prestimulus_duration":997,"correct":true,"type":"MullerLyer","illusion_strength":0,"illusion_difference":0.41292307692307695,"block_number":2,"trial_number":5},{"rt":null,"stimulus":"<div style=\"font-size:60px;\">+</div>","response":null,"screen":"fixation","trial_type":"html-keyboard-response","trial_index":178,"time_elapsed":118698,"internal_node_id":"0.0-4.0-2.0-0.5","participant_id":"t92d8ethzz","trial_duration":609},{"rt":749,"stimulus":"stimuli/MullerLyer_str0_diff-0.318769.png","response":"arrowdown","screen":"Trial","block":"MullerLyer","correct_response":"arrowdown","trial_type":"image-keyboard-response","trial_index":179,"time_elapsed":119449,"internal_node_id":"0.0-4.0-2.0-1.5","participant_id":"t92d8ethzz","prestimulus_duration":615,"correct":true,"type":"MullerLyer","illusion_strength":0,"illusion_difference":-0.3187692307692308,"block_number":2,"trial_number":6},{"rt":null,"stimulus":"<div style=\"font-size:60px;\">+</div>","response":null,"screen":"fixation","trial_type":"html-keyboard-response","trial_index":180,"time_elapsed":120140,"internal_node_id":"0.0-4.0-2.0-0.6","participant_id":"t92d8ethzz","trial_duration":684},{"rt":549,"stimulus":"stimuli/MullerLyer_str0_diff0.448231.png","response":"arrowup","screen":"Trial","block":"MullerLyer","correct_response":"arrowup","trial_type":"image-keyboard-response","trial_index":181,"time_elapsed":120692,"internal_node_id":"0.0-4.0-2.0-1.6","participant_id":"t92d8ethzz","prestimulus_duration":691,"correct":true,"type":"MullerLyer","illusion_strength":0,"illusion_difference":0.44823076923076927,"block_number":2,"trial_number":7},{"rt":null,"stimulus":"<div style=\"font-size:60px;\">+</div>","response":null,"screen":"fixation","trial_type":"html-keyboard-response","trial_index":182,"time_elapsed":121198,"internal_node_id":"0.0-4.0-2.0-0.7","participant_id":"t92d8ethzz","trial_duration":504},{"rt":316,"stimulus":"stimuli/MullerLyer_str0_diff-0.365846.png","response":"arrowup","screen":"Trial","block":"MullerLyer","correct_response":"arrowdown","trial_type":"image-keyboard-response","trial_index":183,"time_elapsed":121515,"internal_node_id":"0.0-4.0-2.0-1.7","participant_id":"t92d8ethzz","prestimulus_duration":506,"correct":false,"type":"MullerLyer","illusion_strength":0,"illusion_difference":-0.3658461538461539,"block_number":2,"trial_number":8},{"rt":null,"stimulus":"<div style=\"font-size:60px;\">+</div>","response":null,"screen":"fixation","trial_type":"html-keyboard-response","trial_index":184,"time_elapsed":122315,"internal_node_id":"0.0-4.0-2.0-0.8","participant_id":"t92d8ethzz","trial_duration":793},{"rt":353,"stimulus":"stimuli/MullerLyer_str0_diff-0.271692.png","response":"arrowdown","screen":"Trial","block":"MullerLyer","correct_response":"arrowdown","trial_type":"image-keyboard-response","trial_index":185,"time_elapsed":122670,"internal_node_id":"0.0-4.0-2.0-1.8","participant_id":"t92d8ethzz","prestimulus_duration":800,"correct":true,"type":"MullerLyer","illusion_strength":0,"illusion_difference":-0.2716923076923077,"block_number":2,"trial_number":9},{"rt":null,"stimulus":"<div style=\"font-size:60px;\">+</div>","response":null,"screen":"fixation","trial_type":"html-keyboard-response","trial_index":186,"time_elapsed":123631,"internal_node_id":"0.0-4.0-2.0-0.9","participant_id":"t92d8ethzz","trial_duration":956},{"rt":270,"stimulus":"stimuli/MullerLyer_str0_diff0.365846.png","response":"arrowdown","screen":"Trial","block":"MullerLyer","correct_response":"arrowup","trial_type":"image-keyboard-response","trial_index":187,"time_elapsed":123904,"internal_node_id":"0.0-4.0-2.0-1.9","participant_id":"t92d8ethzz","prestimulus_duration":961,"correct":false,"type":"MullerLyer","illusion_strength":0,"illusion_difference":0.3658461538461539,"block_number":2,"trial_number":10},{"rt":null,"stimulus":"<div style=\"font-size:60px;\">+</div>","response":null,"screen":"fixation","trial_type":"html-keyboard-response","trial_index":188,"time_elapsed":124442,"internal_node_id":"0.0-4.0-2.0-0.10","participant_id":"t92d8ethzz","trial_duration":536},{"rt":413,"stimulus":"stimuli/MullerLyer_str0_diff0.165769.png","response":"arrowup","screen":"Trial","block":"MullerLyer","correct_response":"arrowup","trial_type":"image-keyboard-response","trial_index":189,"time_elapsed":124857,"internal_node_id":"0.0-4.0-2.0-1.10","participant_id":"t92d8ethzz","prestimulus_duration":538,"correct":true,"type":"MullerLyer","illusion_strength":0,"illusion_difference":0.16576923076923078,"block_number":2,"trial_number":11},{"rt":null,"stimulus":"<div style=\"font-size:60px;\">+</div>","response":null,"screen":"fixation","trial_type":"html-keyboard-response","trial_index":190,"time_elapsed":125588,"internal_node_id":"0.0-4.0-2.0-0.11","participant_id":"t92d8ethzz","trial_duration":724},{"rt":811,"stimulus":"stimuli/MullerLyer_str0_diff0.177538.png","response":"arrowup","screen":"Trial","block":"MullerLyer","correct_response":"arrowup","trial_type":"image-keyboard-response","trial_index":191,"time_elapsed":126401,"internal_node_id":"0.0-4.0-2.0-1.11","participant_id":"t92d8ethzz","prestimulus_duration":731,"correct":true,"type":"MullerLyer","illusion_strength":0,"illusion_difference":0.17753846153846153,"block_number":2,"trial_number":12},{"rt":null,"stimulus":"<div style=\"font-size:60px;\">+</div>","response":null,"screen":"fixation","trial_type":"html-keyboard-response","trial_index":192,"time_elapsed":126929,"internal_node_id":"0.0-4.0-2.0-0.12","participant_id":"t92d8ethzz","trial_duration":522},{"rt":339,"stimulus":"stimuli/MullerLyer_str0_diff0.295231.png","response":"arrowup","screen":"Trial","block":"MullerLyer","correct_response":"arrowup","trial_type":"image-keyboard-response","trial_index":193,"time_elapsed":127271,"internal_node_id":"0.0-4.0-2.0-1.12","participant_id":"t92d8ethzz","prestimulus_duration":528,"correct":true,"type":"MullerLyer","illusion_strength":0,"illusion_difference":0.29523076923076924,"block_number":2,"trial_number":13},{"rt":null,"stimulus":"<div style=\"font-size:60px;\">+</div>","response":null,"screen":"fixation","trial_type":"html-keyboard-response","trial_index":194,"time_elapsed":128251,"internal_node_id":"0.0-4.0-2.0-0.13","participant_id":"t92d8ethzz","trial_duration":976},{"rt":496,"stimulus":"stimuli/MullerLyer_str0_diff0.271692.png","response":"arrowup","screen":"Trial","block":"MullerLyer","correct_response":"arrowup","trial_type":"image-keyboard-response","trial_index":195,"time_elapsed":128749,"internal_node_id":"0.0-4.0-2.0-1.13","participant_id":"t92d8ethzz","prestimulus_duration":980,"correct":true,"type":"MullerLyer","illusion_strength":0,"illusion_difference":0.2716923076923077,"block_number":2,"trial_number":14},{"rt":null,"stimulus":"<div style=\"font-size:60px;\">+</div>","response":null,"screen":"fixation","trial_type":"html-keyboard-response","trial_index":196,"time_elapsed":129595,"internal_node_id":"0.0-4.0-2.0-0.14","participant_id":"t92d8ethzz","trial_duration":839},{"rt":577,"stimulus":"stimuli/MullerLyer_str0_diff-0.118692.png","response":"arrowdown","screen":"Trial","block":"MullerLyer","correct_response":"arrowdown","trial_type":"image-keyboard-response","trial_index":197,"time_elapsed":130174,"internal_node_id":"0.0-4.0-2.0-1.14","participant_id":"t92d8ethzz","prestimulus_duration":846,"correct":true,"type":"MullerLyer","illusion_strength":0,"illusion_difference":-0.1186923076923077,"block_number":2,"trial_number":15},{"rt":null,"stimulus":"<div style=\"font-size:60px;\">+</div>","response":null,"screen":"fixation","trial_type":"html-keyboard-response","trial_index":198,"time_elapsed":130759,"internal_node_id":"0.0-4.0-2.0-0.15","participant_id":"t92d8ethzz","trial_duration":584},{"rt":478,"stimulus":"stimuli/MullerLyer_str0_diff-0.130462.png","response":"arrowdown","screen":"Trial","block":"MullerLyer","correct_response":"arrowdown","trial_type":"image-keyboard-response","trial_index":199,"time_elapsed":131239,"internal_node_id":"0.0-4.0-2.0-1.15","participant_id":"t92d8ethzz","prestimulus_duration":585,"correct":true,"type":"MullerLyer","illusion_strength":0,"illusion_difference":-0.13046153846153846,"block_number":2,"trial_number":16},{"rt":null,"stimulus":"<div style=\"font-size:60px;\">+</div>","response":null,"screen":"fixation","trial_type":"html-keyboard-response","trial_index":200,"time_elapsed":131929,"internal_node_id":"0.0-4.0-2.0-0.16","participant_id":"t92d8ethzz","trial_duration":688},{"rt":339,"stimulus":"stimuli/MullerLyer_str0_diff0.307.png","response":"arrowdown","screen":"Trial","block":"MullerLyer","correct_response":"arrowup","trial_type":"image-keyboard-response","trial_index":201,"time_elapsed":132270,"internal_node_id":"0.0-4.0-2.0-1.16","participant_id":"t92d8ethzz","prestimulus_duration":690,"correct":false,"type":"MullerLyer","illusion_strength":0,"illusion_difference":0.307,"block_number":2,"trial_number":17},{"rt":null,"stimulus":"<div style=\"font-size:60px;\">+</div>","response":null,"screen":"fixation","trial_type":"html-keyboard-response","trial_index":202,"time_elapsed":133181,"internal_node_id":"0.0-4.0-2.0-0.17","participant_id":"t92d8ethzz","trial_duration":907},{"rt":497,"stimulus":"stimuli/MullerLyer_str0_diff0.083385.png","response":"arrowup","screen":"Trial","block":"MullerLyer","correct_response":"arrowup","trial_type":"image-keyboard-response","trial_index":203,"time_elapsed":133680,"internal_node_id":"0.0-4.0-2.0-1.17","participant_id":"t92d8ethzz","prestimulus_duration":911,"correct":true,"type":"MullerLyer","illusion_strength":0,"illusion_difference":0.08338461538461539,"block_number":2,"trial_number":18},{"rt":null,"stimulus":"<div style=\"font-size:60px;\">+</div>","response":null,"screen":"fixation","trial_type":"html-keyboard-response","trial_index":204,"time_elapsed":134618,"internal_node_id":"0.0-4.0-2.0-0.18","participant_id":"t92d8ethzz","trial_duration":931},{"rt":430,"stimulus":"stimuli/MullerLyer_str0_diff0.036308.png","response":"arrowup","screen":"Trial","block":"MullerLyer","correct_response":"arrowup","trial_type":"image-keyboard-response","trial_index":205,"time_elapsed":135050,"internal_node_id":"0.0-4.0-2.0-1.18","participant_id":"t92d8ethzz","prestimulus_duration":938,"correct":true,"type":"MullerLyer","illusion_strength":0,"illusion_difference":0.03630769230769231,"block_number":2,"trial_number":19},{"rt":null,"stimulus":"<div style=\"font-size:60px;\">+</div>","response":null,"screen":"fixation","trial_type":"html-keyboard-response","trial_index":206,"time_elapsed":135936,"internal_node_id":"0.0-4.0-2.0-0.19","participant_id":"t92d8ethzz","trial_duration":879},{"rt":509,"stimulus":"stimuli/MullerLyer_str0_diff-0.354077.png","response":"arrowdown","screen":"Trial","block":"MullerLyer","correct_response":"arrowdown","trial_type":"image-keyboard-response","trial_index":207,"time_elapsed":136447,"internal_node_id":"0.0-4.0-2.0-1.19","participant_id":"t92d8ethzz","prestimulus_duration":886,"correct":true,"type":"MullerLyer","illusion_strength":0,"illusion_difference":-0.35407692307692307,"block_number":2,"trial_number":20},{"rt":null,"stimulus":"<div style=\"font-size:60px;\">+</div>","response":null,"screen":"fixation","trial_type":"html-keyboard-response","trial_index":208,"time_elapsed":137207,"internal_node_id":"0.0-4.0-2.0-0.20","participant_id":"t92d8ethzz","trial_duration":754},{"rt":387,"stimulus":"stimuli/MullerLyer_str0_diff-0.307.png","response":"arrowup","screen":"Trial","block":"MullerLyer","correct_response":"arrowdown","trial_type":"image-keyboard-response","trial_index":209,"time_elapsed":137596,"internal_node_id":"0.0-4.0-2.0-1.20","participant_id":"t92d8ethzz","prestimulus_duration":760,"correct":false,"type":"MullerLyer","illusion_strength":0,"illusion_difference":-0.307,"block_number":2,"trial_number":21},{"rt":null,"stimulus":"<div style=\"font-size:60px;\">+</div>","response":null,"screen":"fixation","trial_type":"html-keyboard-response","trial_index":210,"time_elapsed":138538,"internal_node_id":"0.0-4.0-2.0-0.21","participant_id":"t92d8ethzz","trial_duration":935},{"rt":471,"stimulus":"stimuli/MullerLyer_str0_diff0.318769.png","response":"arrowup","screen":"Trial","block":"MullerLyer","correct_response":"arrowup","trial_type":"image-keyboard-response","trial_index":211,"time_elapsed":139010,"internal_node_id":"0.0-4.0-2.0-1.21","participant_id":"t92d8ethzz","prestimulus_duration":942,"correct":true,"type":"MullerLyer","illusion_strength":0,"illusion_difference":0.3187692307692308,"block_number":2,"trial_number":22},{"rt":null,"stimulus":"<div style=\"font-size:60px;\">+</div>","response":null,"screen":"fixation","trial_type":"html-keyboard-response","trial_index":212,"time_elapsed":139989,"internal_node_id":"0.0-4.0-2.0-0.22","participant_id":"t92d8ethzz","trial_duration":975},{"rt":1263,"stimulus":"stimuli/MullerLyer_str0_diff0.001.png","response":"arrowup","screen":"Trial","block":"MullerLyer","correct_response":"arrowup","trial_type":"image-keyboard-response","trial_index":213,"time_elapsed":141262,"internal_node_id":"0.0-4.0-2.0-1.22","participant_id":"t92d8ethzz","prestimulus_duration":979,"correct":true,"type":"MullerLyer","illusion_strength":0,"illusion_difference":0.001,"block_number":2,"trial_number":23},{"rt":null,"stimulus":"<div style=\"font-size:60px;\">+</div>","response":null,"screen":"fixation","trial_type":"html-keyboard-response","trial_index":214,"time_elapsed":142000,"internal_node_id":"0.0-4.0-2.0-0.23","participant_id":"t92d8ethzz","trial_duration":734},{"rt":681,"stimulus":"stimuli/MullerLyer_str0_diff-0.106923.png","response":"arrowdown","screen":"Trial","block":"MullerLyer","correct_response":"arrowdown","trial_type":"image-keyboard-response","trial_index":215,"time_elapsed":142684,"internal_node_id":"0.0-4.0-2.0-1.23","participant_id":"t92d8ethzz","prestimulus_duration":738,"correct":true,"type":"MullerLyer","illusion_strength":0,"illusion_difference":-0.10692307692307693,"block_number":2,"trial_number":24},{"rt":null,"stimulus":"<div style=\"font-size:60px;\">+</div>","response":null,"screen":"fixation","trial_type":"html-keyboard-response","trial_index":216,"time_elapsed":143332,"internal_node_id":"0.0-4.0-2.0-0.24","participant_id":"t92d8ethzz","trial_duration":642},{"rt":484,"stimulus":"stimuli/MullerLyer_str0_diff0.201077.png","response":"arrowup","screen":"Trial","block":"MullerLyer","correct_response":"arrowup","trial_type":"image-keyboard-response","trial_index":217,"time_elapsed":143818,"internal_node_id":"0.0-4.0-2.0-1.24","participant_id":"t92d8ethzz","prestimulus_duration":648,"correct":true,"type":"MullerLyer","illusion_strength":0,"illusion_difference":0.2010769230769231,"block_number":2,"trial_number":25},{"rt":null,"stimulus":"<div style=\"font-size:60px;\">+</div>","response":null,"screen":"fixation","trial_type":"html-keyboard-response","trial_index":218,"time_elapsed":144419,"internal_node_id":"0.0-4.0-2.0-0.25","participant_id":"t92d8ethzz","trial_duration":598},{"rt":415,"stimulus":"stimuli/MullerLyer_str0_diff0.46.png","response":"arrowup","screen":"Trial","block":"MullerLyer","correct_response":"arrowup","trial_type":"image-keyboard-response","trial_index":219,"time_elapsed":144836,"internal_node_id":"0.0-4.0-2.0-1.25","participant_id":"t92d8ethzz","prestimulus_duration":601,"correct":true,"type":"MullerLyer","illusion_strength":0,"illusion_difference":0.46,"block_number":2,"trial_number":26},{"rt":null,"stimulus":"<div style=\"font-size:60px;\">+</div>","response":null,"screen":"fixation","trial_type":"html-keyboard-response","trial_index":220,"time_elapsed":145795,"internal_node_id":"0.0-4.0-2.0-0.26","participant_id":"t92d8ethzz","trial_duration":952},{"rt":478,"stimulus":"stimuli/MullerLyer_str0_diff-0.201077.png","response":"arrowdown","screen":"Trial","block":"MullerLyer","correct_response":"arrowdown","trial_type":"image-keyboard-response","trial_index":221,"time_elapsed":146275,"internal_node_id":"0.0-4.0-2.0-1.26","participant_id":"t92d8ethzz","prestimulus_duration":959,"correct":true,"type":"MullerLyer","illusion_strength":0,"illusion_difference":-0.2010769230769231,"block_number":2,"trial_number":27},{"rt":null,"stimulus":"<div style=\"font-size:60px;\">+</div>","response":null,"screen":"fixation","trial_type":"html-keyboard-response","trial_index":222,"time_elapsed":147062,"internal_node_id":"0.0-4.0-2.0-0.27","participant_id":"t92d8ethzz","trial_duration":782},{"rt":470,"stimulus":"stimuli/MullerLyer_str0_diff-0.283462.png","response":"arrowdown","screen":"Trial","block":"MullerLyer","correct_response":"arrowdown","trial_type":"image-keyboard-response","trial_index":223,"time_elapsed":147534,"internal_node_id":"0.0-4.0-2.0-1.27","participant_id":"t92d8ethzz","prestimulus_duration":787,"correct":true,"type":"MullerLyer","illusion_strength":0,"illusion_difference":-0.2834615384615385,"block_number":2,"trial_number":28},{"rt":null,"stimulus":"<div style=\"font-size:60px;\">+</div>","response":null,"screen":"fixation","trial_type":"html-keyboard-response","trial_index":224,"time_elapsed":148420,"internal_node_id":"0.0-4.0-2.0-0.28","participant_id":"t92d8ethzz","trial_duration":883},{"rt":516,"stimulus":"stimuli/MullerLyer_str0_diff-0.401154.png","response":"arrowdown","screen":"Trial","block":"MullerLyer","correct_response":"arrowdown","trial_type":"image-keyboard-response","trial_index":225,"time_elapsed":148939,"internal_node_id":"0.0-4.0-2.0-1.28","participant_id":"t92d8ethzz","prestimulus_duration":886,"correct":true,"type":"MullerLyer","illusion_strength":0,"illusion_difference":-0.4011538461538462,"block_number":2,"trial_number":29},{"rt":null,"stimulus":"<div style=\"font-size:60px;\">+</div>","response":null,"screen":"fixation","trial_type":"html-keyboard-response","trial_index":226,"time_elapsed":149854,"internal_node_id":"0.0-4.0-2.0-0.29","participant_id":"t92d8ethzz","trial_duration":908},{"rt":80,"stimulus":"stimuli/MullerLyer_str0_diff-0.083385.png","response":"arrowdown","screen":"Trial","block":"MullerLyer","correct_response":"arrowdown","trial_type":"image-keyboard-response","trial_index":227,"time_elapsed":149935,"internal_node_id":"0.0-4.0-2.0-1.29","participant_id":"t92d8ethzz","prestimulus_duration":915,"correct":true,"type":"MullerLyer","illusion_strength":0,"illusion_difference":-0.08338461538461539,"block_number":2,"trial_number":30},{"rt":null,"stimulus":"<div style=\"font-size:60px;\">+</div>","response":null,"screen":"fixation","trial_type":"html-keyboard-response","trial_index":228,"time_elapsed":150864,"internal_node_id":"0.0-4.0-2.0-0.30","participant_id":"t92d8ethzz","trial_duration":922},{"rt":591,"stimulus":"stimuli/MullerLyer_str0_diff-0.165769.png","response":"arrowdown","screen":"Trial","block":"MullerLyer","correct_response":"arrowdown","trial_type":"image-keyboard-response","trial_index":229,"time_elapsed":151457,"internal_node_id":"0.0-4.0-2.0-1.30","participant_id":"t92d8ethzz","prestimulus_duration":929,"correct":true,"type":"MullerLyer","illusion_strength":0,"illusion_difference":-0.16576923076923078,"block_number":2,"trial_number":31},{"rt":null,"stimulus":"<div style=\"font-size:60px;\">+</div>","response":null,"screen":"fixation","trial_type":"html-keyboard-response","trial_index":230,"time_elapsed":152415,"internal_node_id":"0.0-4.0-2.0-0.31","participant_id":"t92d8ethzz","trial_duration":951},{"rt":710,"stimulus":"stimuli/MullerLyer_str0_diff-0.036308.png","response":"arrowup","screen":"Trial","block":"MullerLyer","correct_response":"arrowdown","trial_type":"image-keyboard-response","trial_index":231,"time_elapsed":153127,"internal_node_id":"0.0-4.0-2.0-1.31","participant_id":"t92d8ethzz","prestimulus_duration":958,"correct":false,"type":"MullerLyer","illusion_strength":0,"illusion_difference":-0.03630769230769231,"block_number":2,"trial_number":32},{"rt":null,"stimulus":"<div style=\"font-size:60px;\">+</div>","response":null,"screen":"fixation","trial_type":"html-keyboard-response","trial_index":232,"time_elapsed":153640,"internal_node_id":"0.0-4.0-2.0-0.32","participant_id":"t92d8ethzz","trial_duration":511},{"rt":471,"stimulus":"stimuli/MullerLyer_str0_diff-0.154.png","response":"arrowdown","screen":"Trial","block":"MullerLyer","correct_response":"arrowdown","trial_type":"image-keyboard-response","trial_index":233,"time_elapsed":154113,"internal_node_id":"0.0-4.0-2.0-1.32","participant_id":"t92d8ethzz","prestimulus_duration":513,"correct":true,"type":"MullerLyer","illusion_strength":0,"illusion_difference":-0.154,"block_number":2,"trial_number":33},{"rt":null,"stimulus":"<div style=\"font-size:60px;\">+</div>","response":null,"screen":"fixation","trial_type":"html-keyboard-response","trial_index":234,"time_elapsed":154879,"internal_node_id":"0.0-4.0-2.0-0.33","participant_id":"t92d8ethzz","trial_duration":761},{"rt":409,"stimulus":"stimuli/MullerLyer_str0_diff0.154.png","response":"arrowup","screen":"Trial","block":"MullerLyer","correct_response":"arrowup","trial_type":"image-keyboard-response","trial_index":235,"time_elapsed":155290,"internal_node_id":"0.0-4.0-2.0-1.33","participant_id":"t92d8ethzz","prestimulus_duration":766,"correct":true,"type":"MullerLyer","illusion_strength":0,"illusion_difference":0.154,"block_number":2,"trial_number":34},{"rt":null,"stimulus":"<div style=\"font-size:60px;\">+</div>","response":null,"screen":"fixation","trial_type":"html-keyboard-response","trial_index":236,"time_elapsed":156128,"internal_node_id":"0.0-4.0-2.0-0.34","participant_id":"t92d8ethzz","trial_duration":836},{"rt":493,"stimulus":"stimuli/MullerLyer_str0_diff0.401154.png","response":"arrowup","screen":"Trial","block":"MullerLyer","correct_response":"arrowup","trial_type":"image-keyboard-response","trial_index":237,"time_elapsed":156623,"internal_node_id":"0.0-4.0-2.0-1.34","participant_id":"t92d8ethzz","prestimulus_duration":838,"correct":true,"type":"MullerLyer","illusion_strength":0,"illusion_difference":0.4011538461538462,"block_number":2,"trial_number":35},{"rt":null,"stimulus":"<div style=\"font-size:60px;\">+</div>","response":null,"screen":"fixation","trial_type":"html-keyboard-response","trial_index":238,"time_elapsed":157316,"internal_node_id":"0.0-4.0-2.0-0.35","participant_id":"t92d8ethzz","trial_duration":688},{"rt":512,"stimulus":"stimuli/MullerLyer_str0_diff0.071615.png","response":"arrowdown","screen":"Trial","block":"MullerLyer","correct_response":"arrowup","trial_type":"image-keyboard-response","trial_index":239,"time_elapsed":157830,"internal_node_id":"0.0-4.0-2.0-1.35","participant_id":"t92d8ethzz","prestimulus_duration":693,"correct":false,"type":"MullerLyer","illusion_strength":0,"illusion_difference":0.07161538461538462,"block_number":2,"trial_number":36},{"rt":null,"stimulus":"<div style=\"font-size:60px;\">+</div>","response":null,"screen":"fixation","trial_type":"html-keyboard-response","trial_index":240,"time_elapsed":158580,"internal_node_id":"0.0-4.0-2.0-0.36","participant_id":"t92d8ethzz","trial_duration":743},{"rt":564,"stimulus":"stimuli/MullerLyer_str0_diff-0.001.png","response":"arrowdown","screen":"Trial","block":"MullerLyer","correct_response":"arrowdown","trial_type":"image-keyboard-response","trial_index":241,"time_elapsed":159153,"internal_node_id":"0.0-4.0-2.0-1.36","participant_id":"t92d8ethzz","prestimulus_duration":750,"correct":true,"type":"MullerLyer","illusion_strength":0,"illusion_difference":-0.001,"block_number":2,"trial_number":37},{"rt":null,"stimulus":"<div style=\"font-size:60px;\">+</div>","response":null,"screen":"fixation","trial_type":"html-keyboard-response","trial_index":242,"time_elapsed":160145,"internal_node_id":"0.0-4.0-2.0-0.37","participant_id":"t92d8ethzz","trial_duration":986},{"rt":542,"stimulus":"stimuli/MullerLyer_str0_diff-0.295231.png","response":"arrowdown","screen":"Trial","block":"MullerLyer","correct_response":"arrowdown","trial_type":"image-keyboard-response","trial_index":243,"time_elapsed":160690,"internal_node_id":"0.0-4.0-2.0-1.37","participant_id":"t92d8ethzz","prestimulus_duration":992,"correct":true,"type":"MullerLyer","illusion_strength":0,"illusion_difference":-0.29523076923076924,"block_number":2,"trial_number":38},{"rt":null,"stimulus":"<div style=\"font-size:60px;\">+</div>","response":null,"screen":"fixation","trial_type":"html-keyboard-response","trial_index":244,"time_elapsed":161349,"internal_node_id":"0.0-4.0-2.0-0.38","participant_id":"t92d8ethzz","trial_duration":653},{"rt":598,"stimulus":"stimuli/MullerLyer_str0_diff-0.071615.png","response":"arrowdown","screen":"Trial","block":"MullerLyer","correct_response":"arrowdown","trial_type":"image-keyboard-response","trial_index":245,"time_elapsed":161950,"internal_node_id":"0.0-4.0-2.0-1.38","participant_id":"t92d8ethzz","prestimulus_duration":659,"correct":true,"type":"MullerLyer","illusion_strength":0,"illusion_difference":-0.07161538461538462,"block_number":2,"trial_number":39},{"rt":null,"stimulus":"<div style=\"font-size:60px;\">+</div>","response":null,"screen":"fixation","trial_type":"html-keyboard-response","trial_index":246,"time_elapsed":162784,"internal_node_id":"0.0-4.0-2.0-0.39","participant_id":"t92d8ethzz","trial_duration":832},{"rt":541,"stimulus":"stimuli/MullerLyer_str0_diff0.189308.png","response":"arrowup","screen":"Trial","block":"MullerLyer","correct_response":"arrowup","trial_type":"image-keyboard-response","trial_index":247,"time_elapsed":163327,"internal_node_id":"0.0-4.0-2.0-1.39","participant_id":"t92d8ethzz","prestimulus_duration":834,"correct":true,"type":"MullerLyer","illusion_strength":0,"illusion_difference":0.18930769230769232,"block_number":2,"trial_number":40},{"rt":null,"stimulus":"<div style=\"font-size:60px;\">+</div>","response":null,"screen":"fixation","trial_type":"html-keyboard-response","trial_index":248,"time_elapsed":164069,"internal_node_id":"0.0-4.0-2.0-0.40","participant_id":"t92d8ethzz","trial_duration":736},{"rt":553,"stimulus":"stimuli/MullerLyer_str0_diff-0.024538.png","response":"arrowdown","screen":"Trial","block":"MullerLyer","correct_response":"arrowdown","trial_type":"image-keyboard-response","trial_index":249,"time_elapsed":164623,"internal_node_id":"0.0-4.0-2.0-1.40","participant_id":"t92d8ethzz","prestimulus_duration":742,"correct":true,"type":"MullerLyer","illusion_strength":0,"illusion_difference":-0.02453846153846154,"block_number":2,"trial_number":41},{"rt":null,"stimulus":"<div style=\"font-size:60px;\">+</div>","response":null,"screen":"fixation","trial_type":"html-keyboard-response","trial_index":250,"time_elapsed":165542,"internal_node_id":"0.0-4.0-2.0-0.41","participant_id":"t92d8ethzz","trial_duration":912},{"rt":475,"stimulus":"stimuli/MullerLyer_str0_diff-0.212846.png","response":"arrowdown","screen":"Trial","block":"MullerLyer","correct_response":"arrowdown","trial_type":"image-keyboard-response","trial_index":251,"time_elapsed":166019,"internal_node_id":"0.0-4.0-2.0-1.41","participant_id":"t92d8ethzz","prestimulus_duration":919,"correct":true,"type":"MullerLyer","illusion_strength":0,"illusion_difference":-0.21284615384615385,"block_number":2,"trial_number":42},{"rt":null,"stimulus":"<div style=\"font-size:60px;\">+</div>","response":null,"screen":"fixation","trial_type":"html-keyboard-response","trial_index":252,"time_elapsed":166895,"internal_node_id":"0.0-4.0-2.0-0.42","participant_id":"t92d8ethzz","trial_duration":869},{"rt":707,"stimulus":"stimuli/MullerLyer_str0_diff0.048077.png","response":"arrowdown","screen":"Trial","block":"MullerLyer","correct_response":"arrowup","trial_type":"image-keyboard-response","trial_index":253,"time_elapsed":167604,"internal_node_id":"0.0-4.0-2.0-1.42","participant_id":"t92d8ethzz","prestimulus_duration":876,"correct":false,"type":"MullerLyer","illusion_strength":0,"illusion_difference":0.04807692307692308,"block_number":2,"trial_number":43},{"rt":null,"stimulus":"<div style=\"font-size:60px;\">+</div>","response":null,"screen":"fixation","trial_type":"html-keyboard-response","trial_index":254,"time_elapsed":168332,"internal_node_id":"0.0-4.0-2.0-0.43","participant_id":"t92d8ethzz","trial_duration":722},{"rt":415,"stimulus":"stimuli/MullerLyer_str0_diff0.424692.png","response":"arrowup","screen":"Trial","block":"MullerLyer","correct_response":"arrowup","trial_type":"image-keyboard-response","trial_index":255,"time_elapsed":168750,"internal_node_id":"0.0-4.0-2.0-1.43","participant_id":"t92d8ethzz","prestimulus_duration":728,"correct":true,"type":"MullerLyer","illusion_strength":0,"illusion_difference":0.4246923076923077,"block_number":2,"trial_number":44},{"rt":null,"stimulus":"<div style=\"font-size:60px;\">+</div>","response":null,"screen":"fixation","trial_type":"html-keyboard-response","trial_index":256,"time_elapsed":169259,"internal_node_id":"0.0-4.0-2.0-0.44","participant_id":"t92d8ethzz","trial_duration":507},{"rt":595,"stimulus":"stimuli/MullerLyer_str0_diff-0.012769.png","response":"arrowdown","screen":"Trial","block":"MullerLyer","correct_response":"arrowdown","trial_type":"image-keyboard-response","trial_index":257,"time_elapsed":169857,"internal_node_id":"0.0-4.0-2.0-1.44","participant_id":"t92d8ethzz","prestimulus_duration":509,"correct":true,"type":"MullerLyer","illusion_strength":0,"illusion_difference":-0.012769230769230769,"block_number":2,"trial_number":45},{"rt":null,"stimulus":"<div style=\"font-size:60px;\">+</div>","response":null,"screen":"fixation","trial_type":"html-keyboard-response","trial_index":258,"time_elapsed":170606,"internal_node_id":"0.0-4.0-2.0-0.45","participant_id":"t92d8ethzz","trial_duration":742},{"rt":717,"stimulus":"stimuli/MullerLyer_str0_diff0.059846.png","response":"arrowup","screen":"Trial","block":"MullerLyer","correct_response":"arrowup","trial_type":"image-keyboard-response","trial_index":259,"time_elapsed":171326,"internal_node_id":"0.0-4.0-2.0-1.45","participant_id":"t92d8ethzz","prestimulus_duration":749,"correct":true,"type":"MullerLyer","illusion_strength":0,"illusion_difference":0.05984615384615385,"block_number":2,"trial_number":46},{"rt":null,"stimulus":"<div style=\"font-size:60px;\">+</div>","response":null,"screen":"fixation","trial_type":"html-keyboard-response","trial_index":260,"time_elapsed":172101,"internal_node_id":"0.0-4.0-2.0-0.46","participant_id":"t92d8ethzz","trial_duration":769},{"rt":408,"stimulus":"stimuli/MullerLyer_str0_diff0.224615.png","response":"arrowup","screen":"Trial","block":"MullerLyer","correct_response":"arrowup","trial_type":"image-keyboard-response","trial_index":261,"time_elapsed":172512,"internal_node_id":"0.0-4.0-2.0-1.46","participant_id":"t92d8ethzz","prestimulus_duration":775,"correct":true,"type":"MullerLyer","illusion_strength":0,"illusion_difference":0.22461538461538463,"block_number":2,"trial_number":47},{"rt":null,"stimulus":"<div style=\"font-size:60px;\">+</div>","response":null,"screen":"fixation","trial_type":"html-keyboard-response","trial_index":262,"time_elapsed":173263,"internal_node_id":"0.0-4.0-2.0-0.47","participant_id":"t92d8ethzz","trial_duration":745},{"rt":578,"stimulus":"stimuli/MullerLyer_str0_diff0.118692.png","response":"arrowup","screen":"Trial","block":"MullerLyer","correct_response":"arrowup","trial_type":"image-keyboard-response","trial_index":263,"time_elapsed":173843,"internal_node_id":"0.0-4.0-2.0-1.47","participant_id":"t92d8ethzz","prestimulus_duration":751,"correct":true,"type":"MullerLyer","illusion_strength":0,"illusion_difference":0.1186923076923077,"block_number":2,"trial_number":48},{"rt":null,"stimulus":"<div style=\"font-size:60px;\">+</div>","response":null,"screen":"fixation","trial_type":"html-keyboard-response","trial_index":264,"time_elapsed":174468,"internal_node_id":"0.0-4.0-2.0-0.48","participant_id":"t92d8ethzz","trial_duration":618},{"rt":515,"stimulus":"stimuli/MullerLyer_str0_diff-0.46.png","response":"arrowdown","screen":"Trial","block":"MullerLyer","correct_response":"arrowdown","trial_type":"image-keyboard-response","trial_index":265,"time_elapsed":174985,"internal_node_id":"0.0-4.0-2.0-1.48","participant_id":"t92d8ethzz","prestimulus_duration":625,"correct":true,"type":"MullerLyer","illusion_strength":0,"illusion_difference":-0.46,"block_number":2,"trial_number":49},{"rt":null,"stimulus":"<div style=\"font-size:60px;\">+</div>","response":null,"screen":"fixation","trial_type":"html-keyboard-response","trial_index":266,"time_elapsed":175900,"internal_node_id":"0.0-4.0-2.0-0.49","participant_id":"t92d8ethzz","trial_duration":910},{"rt":485,"stimulus":"stimuli/MullerLyer_str0_diff0.354077.png","response":"arrowup","screen":"Trial","block":"MullerLyer","correct_response":"arrowup","trial_type":"image-keyboard-response","trial_index":267,"time_elapsed":176388,"internal_node_id":"0.0-4.0-2.0-1.49","participant_id":"t92d8ethzz","prestimulus_duration":915,"correct":true,"type":"MullerLyer","illusion_strength":0,"illusion_difference":0.35407692307692307,"block_number":2,"trial_number":50},{"rt":null,"stimulus":"<div style=\"font-size:60px;\">+</div>","response":null,"screen":"fixation","trial_type":"html-keyboard-response","trial_index":268,"time_elapsed":177159,"internal_node_id":"0.0-4.0-2.0-0.50","participant_id":"t92d8ethzz","trial_duration":765},{"rt":468,"stimulus":"stimuli/MullerLyer_str0_diff0.377615.png","response":"arrowup","screen":"Trial","block":"MullerLyer","correct_response":"arrowup","trial_type":"image-keyboard-response","trial_index":269,"time_elapsed":177630,"internal_node_id":"0.0-4.0-2.0-1.50","participant_id":"t92d8ethzz","prestimulus_duration":771,"correct":true,"type":"MullerLyer","illusion_strength":0,"illusion_difference":0.37761538461538463,"block_number":2,"trial_number":51},{"rt":null,"stimulus":"<div style=\"font-size:60px;\">+</div>","response":null,"screen":"fixation","trial_type":"html-keyboard-response","trial_index":270,"time_elapsed":178142,"internal_node_id":"0.0-4.0-2.0-0.51","participant_id":"t92d8ethzz","trial_duration":509},{"rt":543,"stimulus":"stimuli/MullerLyer_str0_diff-0.436462.png","response":"arrowdown","screen":"Trial","block":"MullerLyer","correct_response":"arrowdown","trial_type":"image-keyboard-response","trial_index":271,"time_elapsed":178687,"internal_node_id":"0.0-4.0-2.0-1.51","participant_id":"t92d8ethzz","prestimulus_duration":512,"correct":true,"type":"MullerLyer","illusion_strength":0,"illusion_difference":-0.43646153846153846,"block_number":2,"trial_number":52},{"rt":null,"stimulus":"<div style=\"font-size:60px;\">+</div>","response":null,"screen":"fixation","trial_type":"html-keyboard-response","trial_index":272,"time_elapsed":179216,"internal_node_id":"0.0-4.0-2.0-0.52","participant_id":"t92d8ethzz","trial_duration":522},{"rt":505,"stimulus":"stimuli/MullerLyer_str0_diff-0.142231.png","response":"arrowdown","screen":"Trial","block":"MullerLyer","correct_response":"arrowdown","trial_type":"image-keyboard-response","trial_index":273,"time_elapsed":179723,"internal_node_id":"0.0-4.0-2.0-1.52","participant_id":"t92d8ethzz","prestimulus_duration":529,"correct":true,"type":"MullerLyer","illusion_strength":0,"illusion_difference":-0.14223076923076924,"block_number":2,"trial_number":53},{"rt":null,"stimulus":"<div style=\"font-size:60px;\">+</div>","response":null,"screen":"fixation","trial_type":"html-keyboard-response","trial_index":274,"time_elapsed":180388,"internal_node_id":"0.0-4.0-2.0-0.53","participant_id":"t92d8ethzz","trial_duration":658},{"rt":707,"stimulus":"stimuli/Mulle