[{"success":true,"trial_type":"fullscreen","trial_index":0,"time_elapsed":6847,"internal_node_id":"0.0-0.0","participant_id":"ucz3c6pm41"},{"success":true,"timeout":false,"failed_images":[],"failed_audio":[],"failed_video":[],"trial_type":"preload","trial_index":1,"time_elapsed":7195,"internal_node_id":"0.0-1.0","participant_id":"ucz3c6pm41"},{"rt":8990,"stimulus":"<p><b>The Illusion Game</b></p><p>In this game of speed and reflex, you will need to make <b>visual judgments</b> of different targets (for instance, which circle is the biggest, or which line is the longest), as <b>quickly</b> as possible.</p><p>It can be challenging at times, so you want to rely on your intuition and gut feeling to answer as <b>fast</b> as you can.</p><p>Don't worry, we will show you examples of each target before each block.</p><p>Remember, your goal is to be as <b>fast</b> as possible. Good luck!</p>","response":0,"screen":"general_instructions","trial_type":"html-button-response","trial_index":2,"time_elapsed":16186,"internal_node_id":"0.0-2.0","participant_id":"ucz3c6pm41"},{"success":true,"timeout":false,"failed_images":[],"failed_audio":[],"failed_video":[],"trial_type":"preload","trial_index":3,"time_elapsed":17223,"internal_node_id":"0.0-3.0-0.0","participant_id":"ucz3c6pm41"},{"rt":8531,"stimulus":"<p><b>Part 1</b></p><p>In this part, two red circles will appear side by side on the screen.</p><p>Your task is to select which <b>red circle is bigger</b> in size as fast as you can, without making errors.</p><p>Press <b>the LEFT or the RIGHT arrow</b> to indicate which is the bigger <b>red circle.</b></p><div style='float: center'><img src='utils/stimuli_demo/Delboeuf_Demo.png' height='300'></img><p><img src='utils/answer/answer_leftright_keyboard.PNG' height='150'></img></p><p class='small'>In this example, the correct answer is the <b>LEFT arrow</b>.</p></div><p>Are you ready? <b>Press ENTER to start</b></p>","response":"enter","trial_type":"html-keyboard-response","trial_index":4,"time_elapsed":25758,"internal_node_id":"0.0-3.0-1.0","participant_id":"ucz3c6pm41"},{"rt":null,"stimulus":"<div style=\"font-size:60px;\">+</div>","response":null,"screen":"fixation","trial_type":"html-keyboard-response","trial_index":5,"time_elapsed":27010,"internal_node_id":"0.0-3.0-2.0-0.0","participant_id":"ucz3c6pm41","trial_duration":748},{"rt":663,"stimulus":"stimuli/Delboeuf_str0_diff-0.385231.png","response":"arrowright","screen":"Trial","block":"Delboeuf","correct_response":"arrowright","trial_type":"image-keyboard-response","trial_index":6,"time_elapsed":27685,"internal_node_id":"0.0-3.0-2.0-1.0","participant_id":"ucz3c6pm41","prestimulus_duration":1252,"correct":true,"type":"Delboeuf","illusion_strength":0,"illusion_difference":-0.38523076923076927,"block_number":1,"trial_number":1},{"rt":null,"stimulus":"<div style=\"font-size:60px;\">+</div>","response":null,"screen":"fixation","trial_type":"html-keyboard-response","trial_index":7,"time_elapsed":28523,"internal_node_id":"0.0-3.0-2.0-0.1","participant_id":"ucz3c6pm41","trial_duration":835},{"rt":473,"stimulus":"stimuli/Delboeuf_str0_diff0.974385.png","response":"arrowleft","screen":"Trial","block":"Delboeuf","correct_response":"arrowleft","trial_type":"image-keyboard-response","trial_index":8,"time_elapsed":29006,"internal_node_id":"0.0-3.0-2.0-1.1","participant_id":"ucz3c6pm41","prestimulus_duration":838,"correct":true,"type":"Delboeuf","illusion_strength":0,"illusion_difference":0.9743846153846154,"block_number":1,"trial_number":2},{"rt":null,"stimulus":"<div style=\"font-size:60px;\">+</div>","response":null,"screen":"fixation","trial_type":"html-keyboard-response","trial_index":9,"time_elapsed":29628,"internal_node_id":"0.0-3.0-2.0-0.2","participant_id":"ucz3c6pm41","trial_duration":618},{"rt":455,"stimulus":"stimuli/Delboeuf_str0_diff0.795077.png","response":"arrowleft","screen":"Trial","block":"Delboeuf","correct_response":"arrowleft","trial_type":"image-keyboard-response","trial_index":10,"time_elapsed":30092,"internal_node_id":"0.0-3.0-2.0-1.2","participant_id":"ucz3c6pm41","prestimulus_duration":622,"correct":true,"type":"Delboeuf","illusion_strength":0,"illusion_difference":0.7950769230769231,"block_number":1,"trial_number":3},{"rt":null,"stimulus":"<div style=\"font-size:60px;\">+</div>","response":null,"screen":"fixation","trial_type":"html-keyboard-response","trial_index":11,"time_elapsed":31006,"internal_node_id":"0.0-3.0-2.0-0.3","participant_id":"ucz3c6pm41","trial_duration":912},{"rt":404,"stimulus":"stimuli/Delboeuf_str0_diff0.743846.png","response":"arrowleft","screen":"Trial","block":"Delboeuf","correct_response":"arrowleft","trial_type":"image-keyboard-response","trial_index":12,"time_elapsed":31420,"internal_node_id":"0.0-3.0-2.0-1.3","participant_id":"ucz3c6pm41","prestimulus_duration":914,"correct":true,"type":"Delboeuf","illusion_strength":0,"illusion_difference":0.7438461538461538,"block_number":1,"trial_number":4},{"rt":null,"stimulus":"<div style=\"font-size:60px;\">+</div>","response":null,"screen":"fixation","trial_type":"html-keyboard-response","trial_index":13,"time_elapsed":32317,"internal_node_id":"0.0-3.0-2.0-0.4","participant_id":"ucz3c6pm41","trial_duration":895},{"rt":406,"stimulus":"stimuli/Delboeuf_str0_diff-0.871923.png","response":"arrowright","screen":"Trial","block":"Delboeuf","correct_response":"arrowright","trial_type":"image-keyboard-response","trial_index":14,"time_elapsed":32733,"internal_node_id":"0.0-3.0-2.0-1.4","participant_id":"ucz3c6pm41","prestimulus_duration":897,"correct":true,"type":"Delboeuf","illusion_strength":0,"illusion_difference":-0.8719230769230769,"block_number":1,"trial_number":5},{"rt":null,"stimulus":"<div style=\"font-size:60px;\">+</div>","response":null,"screen":"fixation","trial_type":"html-keyboard-response","trial_index":15,"time_elapsed":33428,"internal_node_id":"0.0-3.0-2.0-0.5","participant_id":"ucz3c6pm41","trial_duration":690},{"rt":428,"stimulus":"stimuli/Delboeuf_str0_diff-1.0.png","response":"arrowright","screen":"Trial","block":"Delboeuf","correct_response":"arrowright","trial_type":"image-keyboard-response","trial_index":16,"time_elapsed":33866,"internal_node_id":"0.0-3.0-2.0-1.5","participant_id":"ucz3c6pm41","prestimulus_duration":695,"correct":true,"type":"Delboeuf","illusion_strength":0,"illusion_difference":-1,"block_number":1,"trial_number":6},{"rt":null,"stimulus":"<div style=\"font-size:60px;\">+</div>","response":null,"screen":"fixation","trial_type":"html-keyboard-response","trial_index":17,"time_elapsed":34569,"internal_node_id":"0.0-3.0-2.0-0.6","participant_id":"ucz3c6pm41","trial_duration":701},{"rt":392,"stimulus":"stimuli/Delboeuf_str0_diff0.897538.png","response":"arrowleft","screen":"Trial","block":"Delboeuf","correct_response":"arrowleft","trial_type":"image-keyboard-response","trial_index":18,"time_elapsed":34971,"internal_node_id":"0.0-3.0-2.0-1.6","participant_id":"ucz3c6pm41","prestimulus_duration":703,"correct":true,"type":"Delboeuf","illusion_strength":0,"illusion_difference":0.8975384615384616,"block_number":1,"trial_number":7},{"rt":null,"stimulus":"<div style=\"font-size:60px;\">+</div>","response":null,"screen":"fixation","trial_type":"html-keyboard-response","trial_index":19,"time_elapsed":35653,"internal_node_id":"0.0-3.0-2.0-0.7","participant_id":"ucz3c6pm41","trial_duration":679},{"rt":442,"stimulus":"stimuli/Delboeuf_str0_diff0.180308.png","response":"arrowright","screen":"Trial","block":"Delboeuf","correct_response":"arrowleft","trial_type":"image-keyboard-response","trial_index":20,"time_elapsed":36105,"internal_node_id":"0.0-3.0-2.0-1.7","participant_id":"ucz3c6pm41","prestimulus_duration":682,"correct":false,"type":"Delboeuf","illusion_strength":0,"illusion_difference":0.1803076923076923,"block_number":1,"trial_number":8},{"rt":null,"stimulus":"<div style=\"font-size:60px;\">+</div>","response":null,"screen":"fixation","trial_type":"html-keyboard-response","trial_index":21,"time_elapsed":37027,"internal_node_id":"0.0-3.0-2.0-0.8","participant_id":"ucz3c6pm41","trial_duration":921},{"rt":478,"stimulus":"stimuli/Delboeuf_str0_diff-0.359615.png","response":"arrowright","screen":"Trial","block":"Delboeuf","correct_response":"arrowright","trial_type":"image-keyboard-response","trial_index":22,"time_elapsed":37516,"internal_node_id":"0.0-3.0-2.0-1.8","participant_id":"ucz3c6pm41","prestimulus_duration":922,"correct":true,"type":"Delboeuf","illusion_strength":0,"illusion_difference":-0.3596153846153846,"block_number":1,"trial_number":9},{"rt":null,"stimulus":"<div style=\"font-size:60px;\">+</div>","response":null,"screen":"fixation","trial_type":"html-keyboard-response","trial_index":23,"time_elapsed":38412,"internal_node_id":"0.0-3.0-2.0-0.9","participant_id":"ucz3c6pm41","trial_duration":894},{"rt":405,"stimulus":"stimuli/Delboeuf_str0_diff0.769462.png","response":"arrowleft","screen":"Trial","block":"Delboeuf","correct_response":"arrowleft","trial_type":"image-keyboard-response","trial_index":24,"time_elapsed":38828,"internal_node_id":"0.0-3.0-2.0-1.9","participant_id":"ucz3c6pm41","prestimulus_duration":896,"correct":true,"type":"Delboeuf","illusion_strength":0,"illusion_difference":0.7694615384615385,"block_number":1,"trial_number":10},{"rt":null,"stimulus":"<div style=\"font-size:60px;\">+</div>","response":null,"screen":"fixation","trial_type":"html-keyboard-response","trial_index":25,"time_elapsed":39815,"internal_node_id":"0.0-3.0-2.0-0.10","participant_id":"ucz3c6pm41","trial_duration":984},{"rt":459,"stimulus":"stimuli/Delboeuf_str0_diff-0.334.png","response":"arrowright","screen":"Trial","block":"Delboeuf","correct_response":"arrowright","trial_type":"image-keyboard-response","trial_index":26,"time_elapsed":40283,"internal_node_id":"0.0-3.0-2.0-1.10","participant_id":"ucz3c6pm41","prestimulus_duration":987,"correct":true,"type":"Delboeuf","illusion_strength":0,"illusion_difference":-0.334,"block_number":1,"trial_number":11},{"rt":null,"stimulus":"<div style=\"font-size:60px;\">+</div>","response":null,"screen":"fixation","trial_type":"html-keyboard-response","trial_index":27,"time_elapsed":41043,"internal_node_id":"0.0-3.0-2.0-0.11","participant_id":"ucz3c6pm41","trial_duration":757},{"rt":432,"stimulus":"stimuli/Delboeuf_str0_diff-0.513308.png","response":"arrowright","screen":"Trial","block":"Delboeuf","correct_response":"arrowright","trial_type":"image-keyboard-response","trial_index":28,"time_elapsed":41484,"internal_node_id":"0.0-3.0-2.0-1.11","participant_id":"ucz3c6pm41","prestimulus_duration":760,"correct":true,"type":"Delboeuf","illusion_strength":0,"illusion_difference":-0.5133076923076924,"block_number":1,"trial_number":12},{"rt":null,"stimulus":"<div style=\"font-size:60px;\">+</div>","response":null,"screen":"fixation","trial_type":"html-keyboard-response","trial_index":29,"time_elapsed":42283,"internal_node_id":"0.0-3.0-2.0-0.12","participant_id":"ucz3c6pm41","trial_duration":797},{"rt":422,"stimulus":"stimuli/Delboeuf_str0_diff-0.487692.png","response":"arrowright","screen":"Trial","block":"Delboeuf","correct_response":"arrowright","trial_type":"image-keyboard-response","trial_index":30,"time_elapsed":42715,"internal_node_id":"0.0-3.0-2.0-1.12","participant_id":"ucz3c6pm41","prestimulus_duration":799,"correct":true,"type":"Delboeuf","illusion_strength":0,"illusion_difference":-0.4876923076923077,"block_number":1,"trial_number":13},{"rt":null,"stimulus":"<div style=\"font-size:60px;\">+</div>","response":null,"screen":"fixation","trial_type":"html-keyboard-response","trial_index":31,"time_elapsed":43273,"internal_node_id":"0.0-3.0-2.0-0.13","participant_id":"ucz3c6pm41","trial_duration":555},{"rt":456,"stimulus":"stimuli/Delboeuf_str0_diff0.231538.png","response":"arrowleft","screen":"Trial","block":"Delboeuf","correct_response":"arrowleft","trial_type":"image-keyboard-response","trial_index":32,"time_elapsed":43739,"internal_node_id":"0.0-3.0-2.0-1.13","participant_id":"ucz3c6pm41","prestimulus_duration":558,"correct":true,"type":"Delboeuf","illusion_strength":0,"illusion_difference":0.23153846153846155,"block_number":1,"trial_number":14},{"rt":null,"stimulus":"<div style=\"font-size:60px;\">+</div>","response":null,"screen":"fixation","trial_type":"html-keyboard-response","trial_index":33,"time_elapsed":44275,"internal_node_id":"0.0-3.0-2.0-0.14","participant_id":"ucz3c6pm41","trial_duration":533},{"rt":462,"stimulus":"stimuli/Delboeuf_str0_diff-0.180308.png","response":"arrowright","screen":"Trial","block":"Delboeuf","correct_response":"arrowright","trial_type":"image-keyboard-response","trial_index":34,"time_elapsed":44747,"internal_node_id":"0.0-3.0-2.0-1.14","participant_id":"ucz3c6pm41","prestimulus_duration":536,"correct":true,"type":"Delboeuf","illusion_strength":0,"illusion_difference":-0.1803076923076923,"block_number":1,"trial_number":15},{"rt":null,"stimulus":"<div style=\"font-size:60px;\">+</div>","response":null,"screen":"fixation","trial_type":"html-keyboard-response","trial_index":35,"time_elapsed":45580,"internal_node_id":"0.0-3.0-2.0-0.15","participant_id":"ucz3c6pm41","trial_duration":831},{"rt":453,"stimulus":"stimuli/Delboeuf_str0_diff0.590154.png","response":"arrowleft","screen":"Trial","block":"Delboeuf","correct_response":"arrowleft","trial_type":"image-keyboard-response","trial_index":36,"time_elapsed":46044,"internal_node_id":"0.0-3.0-2.0-1.15","participant_id":"ucz3c6pm41","prestimulus_duration":833,"correct":true,"type":"Delboeuf","illusion_strength":0,"illusion_difference":0.5901538461538461,"block_number":1,"trial_number":16},{"rt":null,"stimulus":"<div style=\"font-size:60px;\">+</div>","response":null,"screen":"fixation","trial_type":"html-keyboard-response","trial_index":37,"time_elapsed":46841,"internal_node_id":"0.0-3.0-2.0-0.16","participant_id":"ucz3c6pm41","trial_duration":795},{"rt":517,"stimulus":"stimuli/Delboeuf_str0_diff0.308385.png","response":"arrowleft","screen":"Trial","block":"Delboeuf","correct_response":"arrowleft","trial_type":"image-keyboard-response","trial_index":38,"time_elapsed":47372,"internal_node_id":"0.0-3.0-2.0-1.16","participant_id":"ucz3c6pm41","prestimulus_duration":797,"correct":true,"type":"Delboeuf","illusion_strength":0,"illusion_difference":0.30838461538461537,"block_number":1,"trial_number":17},{"rt":null,"stimulus":"<div style=\"font-size:60px;\">+</div>","response":null,"screen":"fixation","trial_type":"html-keyboard-response","trial_index":39,"time_elapsed":48131,"internal_node_id":"0.0-3.0-2.0-0.17","participant_id":"ucz3c6pm41","trial_duration":757},{"rt":398,"stimulus":"stimuli/Delboeuf_str0_diff-0.795077.png","response":"arrowright","screen":"Trial","block":"Delboeuf","correct_response":"arrowright","trial_type":"image-keyboard-response","trial_index":40,"time_elapsed":48539,"internal_node_id":"0.0-3.0-2.0-1.17","participant_id":"ucz3c6pm41","prestimulus_duration":759,"correct":true,"type":"Delboeuf","illusion_strength":0,"illusion_difference":-0.7950769230769231,"block_number":1,"trial_number":18},{"rt":null,"stimulus":"<div style=\"font-size:60px;\">+</div>","response":null,"screen":"fixation","trial_type":"html-keyboard-response","trial_index":41,"time_elapsed":49437,"internal_node_id":"0.0-3.0-2.0-0.18","participant_id":"ucz3c6pm41","trial_duration":895},{"rt":406,"stimulus":"stimuli/Delboeuf_str0_diff0.871923.png","response":"arrowleft","screen":"Trial","block":"Delboeuf","correct_response":"arrowleft","trial_type":"image-keyboard-response","trial_index":42,"time_elapsed":49854,"internal_node_id":"0.0-3.0-2.0-1.18","participant_id":"ucz3c6pm41","prestimulus_duration":898,"correct":true,"type":"Delboeuf","illusion_strength":0,"illusion_difference":0.8719230769230769,"block_number":1,"trial_number":19},{"rt":null,"stimulus":"<div style=\"font-size:60px;\">+</div>","response":null,"screen":"fixation","trial_type":"html-keyboard-response","trial_index":43,"time_elapsed":50790,"internal_node_id":"0.0-3.0-2.0-0.19","participant_id":"ucz3c6pm41","trial_duration":934},{"rt":428,"stimulus":"stimuli/Delboeuf_str0_diff0.564538.png","response":"arrowleft","screen":"Trial","block":"Delboeuf","correct_response":"arrowleft","trial_type":"image-keyboard-response","trial_index":44,"time_elapsed":51227,"internal_node_id":"0.0-3.0-2.0-1.19","participant_id":"ucz3c6pm41","prestimulus_duration":936,"correct":true,"type":"Delboeuf","illusion_strength":0,"illusion_difference":0.5645384615384615,"block_number":1,"trial_number":20},{"rt":null,"stimulus":"<div style=\"font-size:60px;\">+</div>","response":null,"screen":"fixation","trial_type":"html-keyboard-response","trial_index":45,"time_elapsed":52107,"internal_node_id":"0.0-3.0-2.0-0.20","participant_id":"ucz3c6pm41","trial_duration":878},{"rt":419,"stimulus":"stimuli/Delboeuf_str0_diff-0.231538.png","response":"arrowright","screen":"Trial","block":"Delboeuf","correct_response":"arrowright","trial_type":"image-keyboard-response","trial_index":46,"time_elapsed":52540,"internal_node_id":"0.0-3.0-2.0-1.20","participant_id":"ucz3c6pm41","prestimulus_duration":880,"correct":true,"type":"Delboeuf","illusion_strength":0,"illusion_difference":-0.23153846153846155,"block_number":1,"trial_number":21},{"rt":null,"stimulus":"<div style=\"font-size:60px;\">+</div>","response":null,"screen":"fixation","trial_type":"html-keyboard-response","trial_index":47,"time_elapsed":53491,"internal_node_id":"0.0-3.0-2.0-0.21","participant_id":"ucz3c6pm41","trial_duration":949},{"rt":447,"stimulus":"stimuli/Delboeuf_str0_diff-0.436462.png","response":"arrowright","screen":"Trial","block":"Delboeuf","correct_response":"arrowright","trial_type":"image-keyboard-response","trial_index":48,"time_elapsed":53948,"internal_node_id":"0.0-3.0-2.0-1.21","participant_id":"ucz3c6pm41","prestimulus_duration":951,"correct":true,"type":"Delboeuf","illusion_strength":0,"illusion_difference":-0.43646153846153846,"block_number":1,"trial_number":22},{"rt":null,"stimulus":"<div style=\"font-size:60px;\">+</div>","response":null,"screen":"fixation","trial_type":"html-keyboard-response","trial_index":49,"time_elapsed":54946,"internal_node_id":"0.0-3.0-2.0-0.22","participant_id":"ucz3c6pm41","trial_duration":996},{"rt":413,"stimulus":"stimuli/Delboeuf_str0_diff-0.052231.png","response":"arrowright","screen":"Trial","block":"Delboeuf","correct_response":"arrowright","trial_type":"image-keyboard-response","trial_index":50,"time_elapsed":55371,"internal_node_id":"0.0-3.0-2.0-1.22","participant_id":"ucz3c6pm41","prestimulus_duration":998,"correct":true,"type":"Delboeuf","illusion_strength":0,"illusion_difference":-0.05223076923076923,"block_number":1,"trial_number":23},{"rt":null,"stimulus":"<div style=\"font-size:60px;\">+</div>","response":null,"screen":"fixation","trial_type":"html-keyboard-response","trial_index":51,"time_elapsed":56319,"internal_node_id":"0.0-3.0-2.0-0.23","participant_id":"ucz3c6pm41","trial_duration":945},{"rt":418,"stimulus":"stimuli/Delboeuf_str0_diff0.205923.png","response":"arrowleft","screen":"Trial","block":"Delboeuf","correct_response":"arrowleft","trial_type":"image-keyboard-response","trial_index":52,"time_elapsed":56747,"internal_node_id":"0.0-3.0-2.0-1.23","participant_id":"ucz3c6pm41","prestimulus_duration":948,"correct":true,"type":"Delboeuf","illusion_strength":0,"illusion_difference":0.20592307692307693,"block_number":1,"trial_number":24},{"rt":null,"stimulus":"<div style=\"font-size:60px;\">+</div>","response":null,"screen":"fixation","trial_type":"html-keyboard-response","trial_index":53,"time_elapsed":57270,"internal_node_id":"0.0-3.0-2.0-0.24","participant_id":"ucz3c6pm41","trial_duration":520},{"rt":491,"stimulus":"stimuli/Delboeuf_str0_diff-0.538923.png","response":"arrowright","screen":"Trial","block":"Delboeuf","correct_response":"arrowright","trial_type":"image-keyboard-response","trial_index":54,"time_elapsed":57771,"internal_node_id":"0.0-3.0-2.0-1.24","participant_id":"ucz3c6pm41","prestimulus_duration":523,"correct":true,"type":"Delboeuf","illusion_strength":0,"illusion_difference":-0.538923076923077,"block_number":1,"trial_number":25},{"rt":null,"stimulus":"<div style=\"font-size:60px;\">+</div>","response":null,"screen":"fixation","trial_type":"html-keyboard-response","trial_index":55,"time_elapsed":58654,"internal_node_id":"0.0-3.0-2.0-0.25","participant_id":"ucz3c6pm41","trial_duration":880},{"rt":452,"stimulus":"stimuli/Delboeuf_str0_diff0.410846.png","response":"arrowleft","screen":"Trial","block":"Delboeuf","correct_response":"arrowleft","trial_type":"image-keyboard-response","trial_index":56,"time_elapsed":59116,"internal_node_id":"0.0-3.0-2.0-1.25","participant_id":"ucz3c6pm41","prestimulus_duration":883,"correct":true,"type":"Delboeuf","illusion_strength":0,"illusion_difference":0.41084615384615386,"block_number":1,"trial_number":26},{"rt":null,"stimulus":"<div style=\"font-size:60px;\">+</div>","response":null,"screen":"fixation","trial_type":"html-keyboard-response","trial_index":57,"time_elapsed":59899,"internal_node_id":"0.0-3.0-2.0-0.26","participant_id":"ucz3c6pm41","trial_duration":781},{"rt":488,"stimulus":"stimuli/Delboeuf_str0_diff0.257154.png","response":"arrowleft","screen":"Trial","block":"Delboeuf","correct_response":"arrowleft","trial_type":"image-keyboard-response","trial_index":58,"time_elapsed":60396,"internal_node_id":"0.0-3.0-2.0-1.26","participant_id":"ucz3c6pm41","prestimulus_duration":783,"correct":true,"type":"Delboeuf","illusion_strength":0,"illusion_difference":0.2571538461538462,"block_number":1,"trial_number":27},{"rt":null,"stimulus":"<div style=\"font-size:60px;\">+</div>","response":null,"screen":"fixation","trial_type":"html-keyboard-response","trial_index":59,"time_elapsed":61120,"internal_node_id":"0.0-3.0-2.0-0.27","participant_id":"ucz3c6pm41","trial_duration":722},{"rt":467,"stimulus":"stimuli/Delboeuf_str0_diff-0.846308.png","response":"arrowright","screen":"Trial","block":"Delboeuf","correct_response":"arrowright","trial_type":"image-keyboard-response","trial_index":60,"time_elapsed":61596,"internal_node_id":"0.0-3.0-2.0-1.27","participant_id":"ucz3c6pm41","prestimulus_duration":724,"correct":true,"type":"Delboeuf","illusion_strength":0,"illusion_difference":-0.8463076923076923,"block_number":1,"trial_number":28},{"rt":null,"stimulus":"<div style=\"font-size:60px;\">+</div>","response":null,"screen":"fixation","trial_type":"html-keyboard-response","trial_index":61,"time_elapsed":62495,"internal_node_id":"0.0-3.0-2.0-0.28","participant_id":"ucz3c6pm41","trial_duration":897},{"rt":403,"stimulus":"stimuli/Delboeuf_str0_diff0.820692.png","response":"arrowleft","screen":"Trial","block":"Delboeuf","correct_response":"arrowleft","trial_type":"image-keyboard-response","trial_index":62,"time_elapsed":62908,"internal_node_id":"0.0-3.0-2.0-1.28","participant_id":"ucz3c6pm41","prestimulus_duration":899,"correct":true,"type":"Delboeuf","illusion_strength":0,"illusion_difference":0.8206923076923077,"block_number":1,"trial_number":29},{"rt":null,"stimulus":"<div style=\"font-size:60px;\">+</div>","response":null,"screen":"fixation","trial_type":"html-keyboard-response","trial_index":63,"time_elapsed":63905,"internal_node_id":"0.0-3.0-2.0-0.29","participant_id":"ucz3c6pm41","trial_duration":994},{"rt":416,"stimulus":"stimuli/Delboeuf_str0_diff-0.308385.png","response":"arrowright","screen":"Trial","block":"Delboeuf","correct_response":"arrowright","trial_type":"image-keyboard-response","trial_index":64,"time_elapsed":64331,"internal_node_id":"0.0-3.0-2.0-1.29","participant_id":"ucz3c6pm41","prestimulus_duration":997,"correct":true,"type":"Delboeuf","illusion_strength":0,"illusion_difference":-0.30838461538461537,"block_number":1,"trial_number":30},{"rt":null,"stimulus":"<div style=\"font-size:60px;\">+</div>","response":null,"screen":"fixation","trial_type":"html-keyboard-response","trial_index":65,"time_elapsed":65126,"internal_node_id":"0.0-3.0-2.0-0.30","participant_id":"ucz3c6pm41","trial_duration":792},{"rt":347,"stimulus":"stimuli/Delboeuf_str0_diff0.718231.png","response":"arrowleft","screen":"Trial","block":"Delboeuf","correct_response":"arrowleft","trial_type":"image-keyboard-response","trial_index":66,"time_elapsed":65484,"internal_node_id":"0.0-3.0-2.0-1.30","participant_id":"ucz3c6pm41","prestimulus_duration":795,"correct":true,"type":"Delboeuf","illusion_strength":0,"illusion_difference":0.7182307692307692,"block_number":1,"trial_number":31},{"rt":null,"stimulus":"<div style=\"font-size:60px;\">+</div>","response":null,"screen":"fixation","trial_type":"html-keyboard-response","trial_index":67,"time_elapsed":66175,"internal_node_id":"0.0-3.0-2.0-0.31","participant_id":"ucz3c6pm41","trial_duration":689},{"rt":898,"stimulus":"stimuli/Delboeuf_str0_diff0.129077.png","response":"arrowright","screen":"Trial","block":"Delboeuf","correct_response":"arrowleft","trial_type":"image-keyboard-response","trial_index":68,"time_elapsed":67083,"internal_node_id":"0.0-3.0-2.0-1.31","participant_id":"ucz3c6pm41","prestimulus_duration":691,"correct":false,"type":"Delboeuf","illusion_strength":0,"illusion_difference":0.1290769230769231,"block_number":1,"trial_number":32},{"rt":null,"stimulus":"<div style=\"font-size:60px;\">+</div>","response":null,"screen":"fixation","trial_type":"html-keyboard-response","trial_index":69,"time_elapsed":67758,"internal_node_id":"0.0-3.0-2.0-0.32","participant_id":"ucz3c6pm41","trial_duration":672},{"rt":481,"stimulus":"stimuli/Delboeuf_str0_diff-0.692615.png","response":"arrowright","screen":"Trial","block":"Delboeuf","correct_response":"arrowright","trial_type":"image-keyboard-response","trial_index":70,"time_elapsed":68251,"internal_node_id":"0.0-3.0-2.0-1.32","participant_id":"ucz3c6pm41","prestimulus_duration":675,"correct":true,"type":"Delboeuf","illusion_strength":0,"illusion_difference":-0.6926153846153846,"block_number":1,"trial_number":33},{"rt":null,"stimulus":"<div style=\"font-size:60px;\">+</div>","response":null,"screen":"fixation","trial_type":"html-keyboard-response","trial_index":71,"time_elapsed":68831,"internal_node_id":"0.0-3.0-2.0-0.33","participant_id":"ucz3c6pm41","trial_duration":577},{"rt":500,"stimulus":"stimuli/Delboeuf_str0_diff-0.948769.png","response":"arrowright","screen":"Trial","block":"Delboeuf","correct_response":"arrowright","trial_type":"image-keyboard-response","trial_index":72,"time_elapsed":69339,"internal_node_id":"0.0-3.0-2.0-1.33","participant_id":"ucz3c6pm41","prestimulus_duration":580,"correct":true,"type":"Delboeuf","illusion_strength":0,"illusion_difference":-0.9487692307692308,"block_number":1,"trial_number":34},{"rt":null,"stimulus":"<div style=\"font-size:60px;\">+</div>","response":null,"screen":"fixation","trial_type":"html-keyboard-response","trial_index":73,"time_elapsed":70320,"internal_node_id":"0.0-3.0-2.0-0.34","participant_id":"ucz3c6pm41","trial_duration":979},{"rt":497,"stimulus":"stimuli/Delboeuf_str0_diff0.436462.png","response":"arrowleft","screen":"Trial","block":"Delboeuf","correct_response":"arrowleft","trial_type":"image-keyboard-response","trial_index":74,"time_elapsed":70827,"internal_node_id":"0.0-3.0-2.0-1.34","participant_id":"ucz3c6pm41","prestimulus_duration":981,"correct":true,"type":"Delboeuf","illusion_strength":0,"illusion_difference":0.43646153846153846,"block_number":1,"trial_number":35},{"rt":null,"stimulus":"<div style=\"font-size:60px;\">+</div>","response":null,"screen":"fixation","trial_type":"html-keyboard-response","trial_index":75,"time_elapsed":71619,"internal_node_id":"0.0-3.0-2.0-0.35","participant_id":"ucz3c6pm41","trial_duration":789},{"rt":620,"stimulus":"stimuli/Delboeuf_str0_diff0.052231.png","response":"arrowleft","screen":"Trial","block":"Delboeuf","correct_response":"arrowleft","trial_type":"image-keyboard-response","trial_index":76,"time_elapsed":72252,"internal_node_id":"0.0-3.0-2.0-1.35","participant_id":"ucz3c6pm41","prestimulus_duration":792,"correct":true,"type":"Delboeuf","illusion_strength":0,"illusion_difference":0.05223076923076923,"block_number":1,"trial_number":36},{"rt":null,"stimulus":"<div style=\"font-size:60px;\">+</div>","response":null,"screen":"fixation","trial_type":"html-keyboard-response","trial_index":77,"time_elapsed":73171,"internal_node_id":"0.0-3.0-2.0-0.36","participant_id":"ucz3c6pm41","trial_duration":916},{"rt":527,"stimulus":"stimuli/Delboeuf_str0_diff0.385231.png","response":"arrowleft","screen":"Trial","block":"Delboeuf","correct_response":"arrowleft","trial_type":"image-keyboard-response","trial_index":78,"time_elapsed":73707,"internal_node_id":"0.0-3.0-2.0-1.36","participant_id":"ucz3c6pm41","prestimulus_duration":919,"correct":true,"type":"Delboeuf","illusion_strength":0,"illusion_difference":0.38523076923076927,"block_number":1,"trial_number":37},{"rt":null,"stimulus":"<div style=\"font-size:60px;\">+</div>","response":null,"screen":"fixation","trial_type":"html-keyboard-response","trial_index":79,"time_elapsed":74710,"internal_node_id":"0.0-3.0-2.0-0.37","participant_id":"ucz3c6pm41","trial_duration":1000},{"rt":475,"stimulus":"stimuli/Delboeuf_str0_diff0.513308.png","response":"arrowleft","screen":"Trial","block":"Delboeuf","correct_response":"arrowleft","trial_type":"image-keyboard-response","trial_index":80,"time_elapsed":75195,"internal_node_id":"0.0-3.0-2.0-1.37","participant_id":"ucz3c6pm41","prestimulus_duration":1003,"correct":true,"type":"Delboeuf","illusion_strength":0,"illusion_difference":0.5133076923076924,"block_number":1,"trial_number":38},{"rt":null,"stimulus":"<div style=\"font-size:60px;\">+</div>","response":null,"screen":"fixation","trial_type":"html-keyboard-response","trial_index":81,"time_elapsed":76143,"internal_node_id":"0.0-3.0-2.0-0.38","participant_id":"ucz3c6pm41","trial_duration":945},{"rt":467,"stimulus":"stimuli/Delboeuf_str0_diff0.538923.png","response":"arrowleft","screen":"Trial","block":"Delboeuf","correct_response":"arrowleft","trial_type":"image-keyboard-response","trial_index":82,"time_elapsed":76619,"internal_node_id":"0.0-3.0-2.0-1.38","participant_id":"ucz3c6pm41","prestimulus_duration":948,"correct":true,"type":"Delboeuf","illusion_strength":0,"illusion_difference":0.538923076923077,"block_number":1,"trial_number":39},{"rt":null,"stimulus":"<div style=\"font-size:60px;\">+</div>","response":null,"screen":"fixation","trial_type":"html-keyboard-response","trial_index":83,"time_elapsed":77290,"internal_node_id":"0.0-3.0-2.0-0.39","participant_id":"ucz3c6pm41","trial_duration":668},{"rt":471,"stimulus":"stimuli/Delboeuf_str0_diff0.846308.png","response":"arrowleft","screen":"Trial","block":"Delboeuf","correct_response":"arrowleft","trial_type":"image-keyboard-response","trial_index":84,"time_elapsed":77772,"internal_node_id":"0.0-3.0-2.0-1.39","participant_id":"ucz3c6pm41","prestimulus_duration":671,"correct":true,"type":"Delboeuf","illusion_strength":0,"illusion_difference":0.8463076923076923,"block_number":1,"trial_number":40},{"rt":null,"stimulus":"<div style=\"font-size:60px;\">+</div>","response":null,"screen":"fixation","trial_type":"html-keyboard-response","trial_index":85,"time_elapsed":78745,"internal_node_id":"0.0-3.0-2.0-0.40","participant_id":"ucz3c6pm41","trial_duration":971},{"rt":552,"stimulus":"stimuli/Delboeuf_str0_diff-0.026615.png","response":"arrowright","screen":"Trial","block":"Delboeuf","correct_response":"arrowright","trial_type":"image-keyboard-response","trial_index":86,"time_elapsed":79307,"internal_node_id":"0.0-3.0-2.0-1.40","participant_id":"ucz3c6pm41","prestimulus_duration":973,"correct":true,"type":"Delboeuf","illusion_strength":0,"illusion_difference":-0.026615384615384617,"block_number":1,"trial_number":41},{"rt":null,"stimulus":"<div style=\"font-size:60px;\">+</div>","response":null,"screen":"fixation","trial_type":"html-keyboard-response","trial_index":87,"time_elapsed":80147,"internal_node_id":"0.0-3.0-2.0-0.41","participant_id":"ucz3c6pm41","trial_duration":837},{"rt":495,"stimulus":"stimuli/Delboeuf_str0_diff-0.743846.png","response":"arrowright","screen":"Trial","block":"Delboeuf","correct_response":"arrowright","trial_type":"image-keyboard-response","trial_index":88,"time_elapsed":80652,"internal_node_id":"0.0-3.0-2.0-1.41","participant_id":"ucz3c6pm41","prestimulus_duration":840,"correct":true,"type":"Delboeuf","illusion_strength":0,"illusion_difference":-0.7438461538461538,"block_number":1,"trial_number":42},{"rt":null,"stimulus":"<div style=\"font-size:60px;\">+</div>","response":null,"screen":"fixation","trial_type":"html-keyboard-response","trial_index":89,"time_elapsed":81538,"internal_node_id":"0.0-3.0-2.0-0.42","participant_id":"ucz3c6pm41","trial_duration":884},{"rt":464,"stimulus":"stimuli/Delboeuf_str0_diff-0.257154.png","response":"arrowright","screen":"Trial","block":"Delboeuf","correct_response":"arrowright","trial_type":"image-keyboard-response","trial_index":90,"time_elapsed":82011,"internal_node_id":"0.0-3.0-2.0-1.42","participant_id":"ucz3c6pm41","prestimulus_duration":886,"correct":true,"type":"Delboeuf","illusion_strength":0,"illusion_difference":-0.2571538461538462,"block_number":1,"trial_number":43},{"rt":null,"stimulus":"<div style=\"font-size:60px;\">+</div>","response":null,"screen":"fixation","trial_type":"html-keyboard-response","trial_index":91,"time_elapsed":82587,"internal_node_id":"0.0-3.0-2.0-0.43","participant_id":"ucz3c6pm41","trial_duration":573},{"rt":549,"stimulus":"stimuli/Delboeuf_str0_diff0.154692.png","response":"arrowleft","screen":"Trial","block":"Delboeuf","correct_response":"arrowleft","trial_type":"image-keyboard-response","trial_index":92,"time_elapsed":83147,"internal_node_id":"0.0-3.0-2.0-1.43","participant_id":"ucz3c6pm41","prestimulus_duration":576,"correct":true,"type":"Delboeuf","illusion_strength":0,"illusion_difference":0.15469230769230768,"block_number":1,"trial_number":44},{"rt":null,"stimulus":"<div style=\"font-size:60px;\">+</div>","response":null,"screen":"fixation","trial_type":"html-keyboard-response","trial_index":93,"time_elapsed":83753,"internal_node_id":"0.0-3.0-2.0-0.44","participant_id":"ucz3c6pm41","trial_duration":603},{"rt":904,"stimulus":"stimuli/Delboeuf_str0_diff0.026615.png","response":"arrowright","screen":"Trial","block":"Delboeuf","correct_response":"arrowleft","trial_type":"image-keyboard-response","trial_index":94,"time_elapsed":84667,"internal_node_id":"0.0-3.0-2.0-1.44","participant_id":"ucz3c6pm41","prestimulus_duration":606,"correct":false,"type":"Delboeuf","illusion_strength":0,"illusion_difference":0.026615384615384617,"block_number":1,"trial_number":45},{"rt":null,"stimulus":"<div style=\"font-size:60px;\">+</div>","response":null,"screen":"fixation","trial_type":"html-keyboard-response","trial_index":95,"time_elapsed":85558,"internal_node_id":"0.0-3.0-2.0-0.45","participant_id":"ucz3c6pm41","trial_duration":888},{"rt":520,"stimulus":"stimuli/Delboeuf_str0_diff0.923154.png","response":"arrowleft","screen":"Trial","block":"Delboeuf","correct_response":"arrowleft","trial_type":"image-keyboard-response","trial_index":96,"time_elapsed":86093,"internal_node_id":"0.0-3.0-2.0-1.45","participant_id":"ucz3c6pm41","prestimulus_duration":891,"correct":true,"type":"Delboeuf","illusion_strength":0,"illusion_difference":0.9231538461538462,"block_number":1,"trial_number":46},{"rt":null,"stimulus":"<div style=\"font-size:60px;\">+</div>","response":null,"screen":"fixation","trial_type":"html-keyboard-response","trial_index":97,"time_elapsed":86695,"internal_node_id":"0.0-3.0-2.0-0.46","participant_id":"ucz3c6pm41","trial_duration":600},{"rt":569,"stimulus":"stimuli/Delboeuf_str0_diff0.615769.png","response":"arrowleft","screen":"Trial","block":"Delboeuf","correct_response":"arrowleft","trial_type":"image-keyboard-response","trial_index":98,"time_elapsed":87275,"internal_node_id":"0.0-3.0-2.0-1.46","participant_id":"ucz3c6pm41","prestimulus_duration":602,"correct":true,"type":"Delboeuf","illusion_strength":0,"illusion_difference":0.6157692307692307,"block_number":1,"trial_number":47},{"rt":null,"stimulus":"<div style=\"font-size:60px;\">+</div>","response":null,"screen":"fixation","trial_type":"html-keyboard-response","trial_index":99,"time_elapsed":87826,"internal_node_id":"0.0-3.0-2.0-0.47","participant_id":"ucz3c6pm41","trial_duration":549},{"rt":478,"stimulus":"stimuli/Delboeuf_str0_diff-0.974385.png","response":"arrowright","screen":"Trial","block":"Delboeuf","correct_response":"arrowright","trial_type":"image-keyboard-response","trial_index":100,"time_elapsed":88314,"internal_node_id":"0.0-3.0-2.0-1.47","participant_id":"ucz3c6pm41","prestimulus_duration":551,"correct":true,"type":"Delboeuf","illusion_strength":0,"illusion_difference":-0.9743846153846154,"block_number":1,"trial_number":48},{"rt":null,"stimulus":"<div style=\"font-size:60px;\">+</div>","response":null,"screen":"fixation","trial_type":"html-keyboard-response","trial_index":101,"time_elapsed":89254,"internal_node_id":"0.0-3.0-2.0-0.48","participant_id":"ucz3c6pm41","trial_duration":938},{"rt":523,"stimulus":"stimuli/Delboeuf_str0_diff0.692615.png","response":"arrowleft","screen":"Trial","block":"Delboeuf","correct_response":"arrowleft","trial_type":"image-keyboard-response","trial_index":102,"time_elapsed":89787,"internal_node_id":"0.0-3.0-2.0-1.48","participant_id":"ucz3c6pm41","prestimulus_duration":940,"correct":true,"type":"Delboeuf","illusion_strength":0,"illusion_difference":0.6926153846153846,"block_number":1,"trial_number":49},{"rt":null,"stimulus":"<div style=\"font-size:60px;\">+</div>","response":null,"screen":"fixation","trial_type":"html-keyboard-response","trial_index":103,"time_elapsed":90683,"internal_node_id":"0.0-3.0-2.0-0.49","participant_id":"ucz3c6pm41","trial_duration":894},{"rt":482,"stimulus":"stimuli/Delboeuf_str0_diff-0.897538.png","response":"arrowright","screen":"Trial","block":"Delboeuf","correct_response":"arrowright","trial_type":"image-keyboard-response","trial_index":104,"time_elapsed":91179,"internal_node_id":"0.0-3.0-2.0-1.49","participant_id":"ucz3c6pm41","prestimulus_duration":896,"correct":true,"type":"Delboeuf","illusion_strength":0,"illusion_difference":-0.8975384615384616,"block_number":1,"trial_number":50},{"rt":null,"stimulus":"<div style=\"font-size:60px;\">+</div>","response":null,"screen":"fixation","trial_type":"html-keyboard-response","trial_index":105,"time_elapsed":92116,"internal_node_id":"0.0-3.0-2.0-0.50","participant_id":"ucz3c6pm41","trial_duration":934},{"rt":445,"stimulus":"stimuli/Delboeuf_str0_diff-0.615769.png","response":"arrowright","screen":"Trial","block":"Delboeuf","correct_response":"arrowright","trial_type":"image-keyboard-response","trial_index":106,"time_elapsed":92572,"internal_node_id":"0.0-3.0-2.0-1.50","participant_id":"ucz3c6pm41","prestimulus_duration":937,"correct":true,"type":"Delboeuf","illusion_strength":0,"illusion_difference":-0.6157692307692307,"block_number":1,"trial_number":51},{"rt":null,"stimulus":"<div style=\"font-size:60px;\">+</div>","response":null,"screen":"fixation","trial_type":"html-keyboard-response","trial_index":107,"time_elapsed":93188,"internal_node_id":"0.0-3.0-2.0-0.51","participant_id":"ucz3c6pm41","trial_duration":614},{"rt":413,"stimulus":"stimuli/Delboeuf_str0_diff-0.667.png","response":"arrowright","screen":"Trial","block":"Delboeuf","correct_response":"arrowright","trial_type":"image-keyboard-response","trial_index":108,"time_elapsed":93612,"internal_node_id":"0.0-3.0-2.0-1.51","participant_id":"ucz3c6pm41","prestimulus_duration":616,"correct":true,"type":"Delboeuf","illusion_strength":0,"illusion_difference":-0.667,"block_number":1,"trial_number":52},{"rt":null,"stimulus":"<div style=\"font-size:60px;\">+</div>","response":null,"screen":"fixation","trial_type":"html-keyboard-response","trial_index":109,"time_elapsed":94507,"internal_node_id":"0.0-3.0-2.0-0.52","participant_id":"ucz3c6pm41","trial_duration":893},{"rt":439,"stimulus":"stimuli/Delboeuf_str0_diff0.667.png","response":"arrowleft","screen":"Trial","block":"Delboeuf","correct_response":"arrowleft","trial_type":"image-keyboard-response","trial_index":110,"time_elapsed":94956,"internal_node_id":"0.0-3.0-2.0-1.52","participant_id":"ucz3c6pm41","prestimulus_duration":895,"correct":true,"type":"Delboeuf","illusion_strength":0,"illusion_difference":0.667,"block_number":1,"trial_number":53},{"rt":null,"stimulus":"<div style=\"font-size:60px;\">+</div>","response":null,"screen":"fixation","trial_type":"html-keyboard-response","trial_index":111,"time_elapsed":95470,"internal_node_id":"0.0-3.0-2.0-0.53","participant_id":"ucz3c6pm41","trial_duration":512},{"rt":498,"stimulus":"stimuli/Delboeuf_str0_diff0.641385.png","response":"arrowleft","screen":"Trial","block":"Delboeuf","correct_response":"arrowleft","trial_type":"image-keyboard-response","trial_index":112,"time_elapsed":95978,"internal_node_id":"0.0-3.0-2.0-1.53","participant_id":"ucz3c6pm41","prestimulus_duration":514,"correct":true,"type":"Delboeuf","illusion_strength":0,"illusion_difference":0.6413846153846154,"block_number":1,"trial_number":54},{"rt":null,"stimulus":"<div style=\"font-size:60px;\">+</div>","response":null,"screen":"fixation","trial_type":"html-keyboard-response","trial_index":113,"time_elapsed":96653,"internal_node_id":"0.0-3.0-2.0-0.54","participant_id":"ucz3c6pm41","trial_duration":672},{"rt":437,"stimulus":"stimuli/Delboeuf_str0_diff-0.205923.png","response":"arrowright","screen":"Trial","block":"Delboeuf","correct_response":"arrowright","trial_type":"image-keyboard-response","trial_index":114,"time_elapsed":97099,"internal_node_id":"0.0-3.0-2.0-1.54","participant_id":"ucz3c6pm41","prestimulus_duration":675,"correct":true,"type":"Delboeuf","illusion_strength":0,"illusion_difference":-0.20592307692307693,"block_number":1,"trial_number":55},{"rt":null,"stimulus":"<div style=\"font-size:60px;\">+</div>","response":null,"screen":"fixation","trial_type":"html-keyboard-response","trial_index":115,"time_elapsed":97792,"internal_node_id":"0.0-3.0-2.0-0.55","participant_id":"ucz3c6pm41","trial_duration":690},{"rt":578,"stimulus":"stimuli/Delboeuf_str0_diff-0.154692.png","response":"arrowright","screen":"Trial","block":"Delboeuf","correct_response":"arrowright","trial_type":"image-keyboard-response","trial_index":116,"time_elapsed":98380,"internal_node_id":"0.0-3.0-2.0-1.55","participant_id":"ucz3c6pm41","prestimulus_duration":693,"correct":true,"type":"Delboeuf","illusion_strength":0,"illusion_difference":-0.15469230769230768,"block_number":1,"trial_number":56},{"rt":null,"stimulus":"<div style=\"font-size:60px;\">+</div>","response":null,"screen":"fixation","trial_type":"html-keyboard-response","trial_index":117,"time_elapsed":99063,"internal_node_id":"0.0-3.0-2.0-0.56","participant_id":"ucz3c6pm41","trial_duration":681},{"rt":458,"stimulus":"stimuli/Delboeuf_str0_diff-0.590154.png","response":"arrowright","screen":"Trial","block":"Delboeuf","correct_response":"arrowright","trial_type":"image-keyboard-response","trial_index":118,"time_elapsed":99531,"internal_node_id":"0.0-3.0-2.0-1.56","participant_id":"ucz3c6pm41","prestimulus_duration":683,"correct":true,"type":"Delboeuf","illusion_strength":0,"illusion_difference":-0.5901538461538461,"block_number":1,"trial_number":57},{"rt":null,"stimulus":"<div style=\"font-size:60px;\">+</div>","response":null,"screen":"fixation","trial_type":"html-keyboard-response","trial_index":119,"time_elapsed":100191,"internal_node_id":"0.0-3.0-2.0-0.57","participant_id":"ucz3c6pm41","trial_duration":657},{"rt":593,"stimulus":"stimuli/Delboeuf_str0_diff-0.001.png","response":"arrowleft","screen":"Trial","block":"Delboeuf","correct_response":"arrowright","trial_type":"image-keyboard-response","trial_index":120,"time_elapsed":100795,"internal_node_id":"0.0-3.0-2.0-1.57","participant_id":"ucz3c6pm41","prestimulus_duration":660,"correct":false,"type":"Delboeuf","illusion_strength":0,"illusion_difference":-0.001,"block_number":1,"trial_number":58},{"rt":null,"stimulus":"<div style=\"font-size:60px;\">+</div>","response":null,"screen":"fixation","trial_type":"html-keyboard-response","trial_index":121,"time_elapsed":101708,"internal_node_id":"0.0-3.0-2.0-0.58","participant_id":"ucz3c6pm41","trial_duration":910},{"rt":581,"stimulus":"stimuli/Delboeuf_str0_diff0.103462.png","response":"arrowleft","screen":"Trial","block":"Delboeuf","correct_response":"arrowleft","trial_type":"image-keyboard-response","trial_index":122,"time_elapsed":102299,"internal_node_id":"0.0-3.0-2.0-1.58","participant_id":"ucz3c6pm41","prestimulus_duration":913,"correct":true,"type":"Delboeuf","illusion_strength":0,"illusion_difference":0.10346153846153847,"block_number":1,"trial_number":59},{"rt":null,"stimulus":"<div style=\"font-size:60px;\">+</div>","response":null,"screen":"fixation","trial_type":"html-keyboard-response","trial_index":123,"time_elapsed":103101,"internal_node_id":"0.0-3.0-2.0-0.59","participant_id":"ucz3c6pm41","trial_duration":799},{"rt":484,"stimulus":"stimuli/Delboeuf_str0_diff-0.820692.png","response":"arrowright","screen":"Trial","block":"Delboeuf","correct_response":"arrowright","trial_type":"image-keyboard-response","trial_index":124,"time_elapsed":103596,"internal_node_id":"0.0-3.0-2.0-1.59","participant_id":"ucz3c6pm41","prestimulus_duration":802,"correct":true,"type":"Delboeuf","illusion_strength":0,"illusion_difference":-0.8206923076923077,"block_number":1,"trial_number":60},{"rt":null,"stimulus":"<div style=\"font-size:60px;\">+</div>","response":null,"screen":"fixation","trial_type":"html-keyboard-response","trial_index":125,"time_elapsed":104264,"internal_node_id":"0.0-3.0-2.0-0.60","participant_id":"ucz3c6pm41","trial_duration":666},{"rt":457,"stimulus":"stimuli/Delboeuf_str0_diff-0.769462.png","response":"arrowright","screen":"Trial","block":"Delboeuf","correct_response":"arrowright","trial_type":"image-keyboard-response","trial_index":126,"time_elapsed":104731,"internal_node_id":"0.0-3.0-2.0-1.60","participant_id":"ucz3c6pm41","prestimulus_duration":668,"correct":true,"type":"Delboeuf","illusion_strength":0,"illusion_difference":-0.7694615384615385,"block_number":1,"trial_number":61},{"rt":null,"stimulus":"<div style=\"font-size:60px;\">+</div>","response":null,"screen":"fixation","trial_type":"html-keyboard-response","trial_index":127,"time_elapsed":105439,"internal_node_id":"0.0-3.0-2.0-0.61","participant_id":"ucz3c6pm41","trial_duration":705},{"rt":495,"stimulus":"stimuli/Delboeuf_str0_diff-0.923154.png","response":"arrowright","screen":"Trial","block":"Delboeuf","correct_response":"arrowright","trial_type":"image-keyboard-response","trial_index":128,"time_elapsed":105947,"internal_node_id":"0.0-3.0-2.0-1.61","participant_id":"ucz3c6pm41","prestimulus_duration":708,"correct":true,"type":"Delboeuf","illusion_strength":0,"illusion_difference":-0.9231538461538462,"block_number":1,"trial_number":62},{"rt":null,"stimulus":"<div style=\"font-size:60px;\">+</div>","response":null,"screen":"fixation","trial_type":"html-keyboard-response","trial_index":129,"time_elapsed":106474,"internal_node_id":"0.0-3.0-2.0-0.62","participant_id":"ucz3c6pm41","trial_duration":524},{"rt":488,"stimulus":"stimuli/Delboeuf_str0_diff-0.718231.png","response":"arrowright","screen":"Trial","block":"Delboeuf","correct_response":"arrowright","trial_type":"image-keyboard-response","trial_index":130,"time_elapsed":106972,"internal_node_id":"0.0-3.0-2.0-1.62","participant_id":"ucz3c6pm41","prestimulus_duration":527,"correct":true,"type":"Delboeuf","illusion_strength":0,"illusion_difference":-0.7182307692307692,"block_number":1,"trial_number":63},{"rt":null,"stimulus":"<div style=\"font-size:60px;\">+</div>","response":null,"screen":"fixation","trial_type":"html-keyboard-response","trial_index":131,"time_elapsed":107509,"internal_node_id":"0.0-3.0-2.0-0.63","participant_id":"ucz3c6pm41","trial_duration":534},{"rt":685,"stimulus":"stimuli/Delboeuf_str0_diff-0.282769.png","response":"arrowright","screen":"Trial","block":"Delboeuf","correct_response":"arrowright","trial_type":"image-keyboard-response","trial_index":132,"time_elapsed":108205,"internal_node_id":"0.0-3.0-2.0-1.63","participant_id":"ucz3c6pm41","prestimulus_duration":537,"correct":true,"type":"Delboeuf","illusion_strength":0,"illusion_difference":-0.2827692307692308,"block_number":1,"trial_number":64},{"rt":null,"stimulus":"<div style=\"font-size:60px;\">+</div>","response":null,"screen":"fixation","trial_type":"html-keyboard-response","trial_index":133,"time_elapsed":108801,"internal_node_id":"0.0-3.0-2.0-0.64","participant_id":"ucz3c6pm41","trial_duration":594},{"rt":482,"stimulus":"stimuli/Delboeuf_str0_diff-0.410846.png","response":"arrowright","screen":"Trial","block":"Delboeuf","correct_response":"arrowright","trial_type":"image-keyboard-response","trial_index":134,"time_elapsed":109292,"internal_node_id":"0.0-3.0-2.0-1.64","participant_id":"ucz3c6pm41","prestimulus_duration":596,"correct":true,"type":"Delboeuf","illusion_strength":0,"illusion_difference":-0.41084615384615386,"block_number":1,"trial_number":65},{"rt":null,"stimulus":"<div style=\"font-size:60px;\">+</div>","response":null,"screen":"fixation","trial_type":"html-keyboard-response","trial_index":135,"time_elapsed":109873,"internal_node_id":"0.0-3.0-2.0-0.65","participant_id":"ucz3c6pm41","trial_duration":576},{"rt":481,"stimulus":"stimuli/Delboeuf_str0_diff-0.641385.png","response":"arrowright","screen":"Trial","block":"Delboeuf","correct_response":"arrowright","trial_type":"image-keyboard-response","trial_index":136,"time_elapsed":110363,"internal_node_id":"0.0-3.0-2.0-1.65","participant_id":"ucz3c6pm41","prestimulus_duration":581,"correct":true,"type":"Delboeuf","illusion_strength":0,"illusion_difference":-0.6413846153846154,"block_number":1,"trial_number":66},{"rt":null,"stimulus":"<div style=\"font-size:60px;\">+</div>","response":null,"screen":"fixation","trial_type":"html-keyboard-response","trial_index":137,"time_elapsed":111246,"internal_node_id":"0.0-3.0-2.0-0.66","participant_id":"ucz3c6pm41","trial_duration":880},{"rt":547,"stimulus":"stimuli/Delboeuf_str0_diff-0.564538.png","response":"arrowright","screen":"Trial","block":"Delboeuf","correct_response":"arrowright","trial_type":"image-keyboard-response","trial_index":138,"time_elapsed":111804,"internal_node_id":"0.0-3.0-2.0-1.66","participant_id":"ucz3c6pm41","prestimulus_duration":883,"correct":true,"type":"Delboeuf","illusion_strength":0,"illusion_difference":-0.5645384615384615,"block_number":1,"trial_number":67},{"rt":null,"stimulus":"<div style=\"font-size:60px;\">+</div>","response":null,"screen":"fixation","trial_type":"html-keyboard-response","trial_index":139,"time_elapsed":112805,"internal_node_id":"0.0-3.0-2.0-0.67","participant_id":"ucz3c6pm41","trial_duration":999},{"rt":636,"stimulus":"stimuli/Delboeuf_str0_diff-0.077846.png","response":"arrowleft","screen":"Trial","block":"Delboeuf","correct_response":"arrowright","trial_type":"image-keyboard-response","trial_index":140,"time_elapsed":113451,"internal_node_id":"0.0-3.0-2.0-1.67","participant_id":"ucz3c6pm41","prestimulus_duration":1001,"correct":false,"type":"Delboeuf","illusion_strength":0,"illusion_difference":-0.07784615384615384,"block_number":1,"trial_number":68},{"rt":null,"stimulus":"<div style=\"font-size:60px;\">+</div>","response":null,"screen":"fixation","trial_type":"html-keyboard-response","trial_index":141,"time_elapsed":114131,"internal_node_id":"0.0-3.0-2.0-0.68","participant_id":"ucz3c6pm41","trial_duration":677},{"rt":478,"stimulus":"stimuli/Delboeuf_str0_diff-0.462077.png","response":"arrowright","screen":"Trial","block":"Delboeuf","correct_response":"arrowright","trial_type":"image-keyboard-response","trial_index":142,"time_elapsed":114619,"internal_node_id":"0.0-3.0-2.0-1.68","participant_id":"ucz3c6pm41","prestimulus_duration":680,"correct":true,"type":"Delboeuf","illusion_strength":0,"illusion_difference":-0.4620769230769231,"block_number":1,"trial_number":69},{"rt":null,"stimulus":"<div style=\"font-size:60px;\">+</div>","response":null,"screen":"fixation","trial_type":"html-keyboard-response","trial_index":143,"time_elapsed":115126,"internal_node_id":"0.0-3.0-2.0-0.69","participant_id":"ucz3c6pm41","trial_duration":504},{"rt":556,"stimulus":"stimuli/Delboeuf_str0_diff0.001.png","response":"arrowleft","screen":"Trial","block":"Delboeuf","correct_response":"arrowleft","trial_type":"image-keyboard-response","trial_index":144,"time_elapsed":115691,"internal_node_id":"0.0-3.0-2.0-1.69","participant_id":"ucz3c6pm41","prestimulus_duration":507,"correct":true,"type":"Delboeuf","illusion_strength":0,"illusion_difference":0.001,"block_number":1,"trial_number":70},{"rt":null,"stimulus":"<div style=\"font-size:60px;\">+</div>","response":null,"screen":"fixation","trial_type":"html-keyboard-response","trial_index":145,"time_elapsed":116317,"internal_node_id":"0.0-3.0-2.0-0.70","participant_id":"ucz3c6pm41","trial_duration":624},{"rt":899,"stimulus":"stimuli/Delboeuf_str0_diff-0.103462.png","response":"arrowright","screen":"Trial","block":"Delboeuf","correct_response":"arrowright","trial_type":"image-keyboard-response","trial_index":146,"time_elapsed":117227,"internal_node_id":"0.0-3.0-2.0-1.70","participant_id":"ucz3c6pm41","prestimulus_duration":626,"correct":true,"type":"Delboeuf","illusion_strength":0,"illusion_difference":-0.10346153846153847,"block_number":1,"trial_number":71},{"rt":null,"stimulus":"<div style=\"font-size:60px;\">+</div>","response":null,"screen":"fixation","trial_type":"html-keyboard-response","trial_index":147,"time_elapsed":118094,"internal_node_id":"0.0-3.0-2.0-0.71","participant_id":"ucz3c6pm41","trial_duration":864},{"rt":500,"stimulus":"stimuli/Delboeuf_str0_diff0.487692.png","response":"arrowleft","screen":"Trial","block":"Delboeuf","correct_response":"arrowleft","trial_type":"image-keyboard-response","trial_index":148,"time_elapsed":118603,"internal_node_id":"0.0-3.0-2.0-1.71","participant_id":"ucz3c6pm41","prestimulus_duration":867,"correct":true,"type":"Delboeuf","illusion_strength":0,"illusion_difference":0.4876923076923077,"block_number":1,"trial_number":72},{"rt":null,"stimulus":"<div style=\"font-size:60px;\">+</div>","response":null,"screen":"fixation","trial_type":"html-keyboard-response","trial_index":149,"time_elapsed":119199,"internal_node_id":"0.0-3.0-2.0-0.72","participant_id":"ucz3c6pm41","trial_duration":593},{"rt":722,"stimulus":"stimuli/Delboeuf_str0_diff0.077846.png","response":"arrowleft","screen":"Trial","block":"Delboeuf","correct_response":"arrowleft","trial_type":"image-keyboard-response","trial_index":150,"time_elapsed":119932,"internal_node_id":"0.0-3.0-2.0-1.72","participant_id":"ucz3c6pm41","prestimulus_duration":596,"correct":true,"type":"Delboeuf","illusion_strength":0,"illusion_difference":0.07784615384615384,"block_number":1,"trial_number":73},{"rt":null,"stimulus":"<div style=\"font-size:60px;\">+</div>","response":null,"screen":"fixation","trial_type":"html-keyboard-response","trial_index":151,"time_elapsed":120776,"internal_node_id":"0.0-3.0-2.0-0.73","participant_id":"ucz3c6pm41","trial_duration":842},{"rt":505,"stimulus":"stimuli/Delboeuf_str0_diff0.462077.png","response":"arrowleft","screen":"Trial","block":"Delboeuf","correct_response":"arrowleft","trial_type":"image-keyboard-response","trial_index":152,"time_elapsed":121291,"internal_node_id":"0.0-3.0-2.0-1.73","participant_id":"ucz3c6pm41","prestimulus_duration":844,"correct":true,"type":"Delboeuf","illusion_strength":0,"illusion_difference":0.4620769230769231,"block_number":1,"trial_number":74},{"rt":null,"stimulus":"<div style=\"font-size:60px;\">+</div>","response":null,"screen":"fixation","trial_type":"html-keyboard-response","trial_index":153,"time_elapsed":122264,"internal_node_id":"0.0-3.0-2.0-0.74","participant_id":"ucz3c6pm41","trial_duration":971},{"rt":536,"stimulus":"stimuli/Delboeuf_str0_diff0.282769.png","response":"arrowleft","screen":"Trial","block":"Delboeuf","correct_response":"arrowleft","trial_type":"image-keyboard-response","trial_index":154,"time_elapsed":122812,"internal_node_id":"0.0-3.0-2.0-1.74","participant_id":"ucz3c6pm41","prestimulus_duration":973,"correct":true,"type":"Delboeuf","illusion_strength":0,"illusion_difference":0.2827692307692308,"block_number":1,"trial_number":75},{"rt":null,"stimulus":"<div style=\"font-size:60px;\">+</div>","response":null,"screen":"fixation","trial_type":"html-keyboard-response","trial_index":155,"time_elapsed":123777,"internal_node_id":"0.0-3.0-2.0-0.75","participant_id":"ucz3c6pm41","trial_duration":963},{"rt":448,"stimulus":"stimuli/Delboeuf_str0_diff0.334.png","response":"arrowleft","screen":"Trial","block":"Delboeuf","correct_response":"arrowleft","trial_type":"image-keyboard-response","trial_index":156,"time_elapsed":124235,"internal_node_id":"0.0-3.0-2.0-1.75","participant_id":"ucz3c6pm41","prestimulus_duration":965,"correct":true,"type":"Delboeuf","illusion_strength":0,"illusion_difference":0.334,"block_number":1,"trial_number":76},{"rt":null,"stimulus":"<div style=\"font-size:60px;\">+</div>","response":null,"screen":"fixation","trial_type":"html-keyboard-response","trial_index":157,"time_elapsed":125120,"internal_node_id":"0.0-3.0-2.0-0.76","participant_id":"ucz3c6pm41","trial_duration":882},{"rt":400,"stimulus":"stimuli/Delboeuf_str0_diff0.948769.png","response":"arrowleft","screen":"Trial","block":"Delboeuf","correct_response":"arrowleft","trial_type":"image-keyboard-response","trial_index":158,"time_elapsed":125532,"internal_node_id":"0.0-3.0-2.0-1.76","participant_id":"ucz3c6pm41","prestimulus_duration":885,"correct":true,"type":"Delboeuf","illusion_strength":0,"illusion_difference":0.9487692307692308,"block_number":1,"trial_number":77},{"rt":null,"stimulus":"<div style=\"font-size:60px;\">+</div>","response":null,"screen":"fixation","trial_type":"html-keyboard-response","trial_index":159,"time_elapsed":126492,"internal_node_id":"0.0-3.0-2.0-0.77","participant_id":"ucz3c6pm41","trial_duration":957},{"rt":549,"stimulus":"stimuli/Delboeuf_str0_diff-0.129077.png","response":"arrowright","screen":"Trial","block":"Delboeuf","correct_response":"arrowright","trial_type":"image-keyboard-response","trial_index":160,"time_elapsed":127052,"internal_node_id":"0.0-3.0-2.0-1.77","participant_id":"ucz3c6pm41","prestimulus_duration":960,"correct":true,"type":"Delboeuf","illusion_strength":0,"illusion_difference":-0.1290769230769231,"block_number":1,"trial_number":78},{"rt":null,"stimulus":"<div style=\"font-size:60px;\">+</div>","response":null,"screen":"fixation","trial_type":"html-keyboard-response","trial_index":161,"time_elapsed":128023,"internal_node_id":"0.0-3.0-2.0-0.78","participant_id":"ucz3c6pm41","trial_duration":969},{"rt":473,"stimulus":"stimuli/Delboeuf_str0_diff1.0.png","response":"arrowleft","screen":"Trial","block":"Delboeuf","correct_response":"arrowleft","trial_type":"image-keyboard-response","trial_index":162,"time_elapsed":128507,"internal_node_id":"0.0-3.0-2.0-1.78","participant_id":"ucz3c6pm41","prestimulus_duration":971,"correct":true,"type":"Delboeuf","illusion_strength":0,"illusion_difference":1,"block_number":1,"trial_number":79},{"rt":null,"stimulus":"<div style=\"font-size:60px;\">+</div>","response":null,"screen":"fixation","trial_type":"html-keyboard-response","trial_index":163,"time_elapsed":129098,"internal_node_id":"0.0-3.0-2.0-0.79","participant_id":"ucz3c6pm41","trial_duration":589},{"rt":566,"stimulus":"stimuli/Delboeuf_str0_diff0.359615.png","response":"arrowleft","screen":"Trial","block":"Delboeuf","correct_response":"arrowleft","trial_type":"image-keyboard-response","trial_index":164,"time_elapsed":129676,"internal_node_id":"0.0-3.0-2.0-1.79","participant_id":"ucz3c6pm41","prestimulus_duration":591,"correct":true,"type":"Delboeuf","illusion_strength":0,"illusion_difference":0.3596153846153846,"block_number":1,"trial_number":80},{"rt":3939,"stimulus":"<p>Great job!</p><p>Can you do better in the next block?</p>","response":0,"screen":"block_results","trial_type":"html-button-response","trial_index":165,"time_elapsed":133621,"internal_node_id":"0.0-3.0-3.0","participant_id":"ucz3c6pm41"},{"success":true,"timeout":false,"failed_images":[],"failed_audio":[],"failed_video":[],"trial_type":"preload","trial_index":166,"time_elapsed":133982,"internal_node_id":"0.0-4.0-0.0","participant_id":"ucz3c6pm41"},{"rt":11085,"stimulus":"<p><b>Part 2</b></p><p>In this part, two horizontal red lines will appear one above the other.</p><p>Your task is to select which <b>line is longer</b> in length as fast as you can, without making errors.</p><p>Press <b>the UP or the DOWN arrow</b> to indicate where is the longer <b>red line.</b></p><div style='float: center'><img src='utils/stimuli_demo/MullerLyer_Demo.png' height='300'></img><p><img src='utils/answer/answer_updown_keyboard.PNG' height='150'></img></p><p class='small'>In this example, the correct answer is the <b>UP arrow</b>.</p></div><p>Are you ready? <b>Press ENTER to start</b></p>","response":"enter","trial_type":"html-keyboard-response","trial_index":167,"time_elapsed":145068,"internal_node_id":"0.0-4.0-1.0","participant_id":"ucz3c6pm41"},{"rt":null,"stimulus":"<div style=\"font-size:60px;\">+</div>","response":null,"screen":"fixation","trial_type":"html-keyboard-response","trial_index":168,"time_elapsed":146565,"internal_node_id":"0.0-4.0-2.0-0.0","participant_id":"ucz3c6pm41","trial_duration":995},{"rt":811,"stimulus":"stimuli/MullerLyer_str0_diff0.106923.png","response":"arrowup","screen":"Trial","block":"MullerLyer","correct_response":"arrowup","trial_type":"image-keyboard-response","trial_index":169,"time_elapsed":147388,"internal_node_id":"0.0-4.0-2.0-1.0","participant_id":"ucz3c6pm41","prestimulus_duration":1497,"correct":true,"type":"MullerLyer","illusion_strength":0,"illusion_difference":0.10692307692307693,"block_number":2,"trial_number":1},{"rt":null,"stimulus":"<div style=\"font-size:60px;\">+</div>","response":null,"screen":"fixation","trial_type":"html-keyboard-response","trial_index":170,"time_elapsed":148063,"internal_node_id":"0.0-4.0-2.0-0.1","participant_id":"ucz3c6pm41","trial_duration":672},{"rt":594,"stimulus":"stimuli/MullerLyer_str0_diff-0.177538.png","response":"arrowdown","screen":"Trial","block":"MullerLyer","correct_response":"arrowdown","trial_type":"image-keyboard-response","trial_index":171,"time_elapsed":148668,"internal_node_id":"0.0-4.0-2.0-1.1","participant_id":"ucz3c6pm41","prestimulus_duration":675,"correct":true,"type":"MullerLyer","illusion_strength":0,"illusion_difference":-0.17753846153846153,"block_number":2,"trial_number":2},{"rt":null,"stimulus":"<div style=\"font-size:60px;\">+</div>","response":null,"screen":"fixation","trial_type":"html-keyboard-response","trial_index":172,"time_elapsed":149555,"internal_node_id":"0.0-4.0-2.0-0.2","participant_id":"ucz3c6pm41","trial_duration":884},{"rt":831,"stimulus":"stimuli/MullerLyer_str0_diff0.001.png","response":"arrowdown","screen":"Trial","block":"MullerLyer","correct_response":"arrowup","trial_type":"image-keyboard-response","trial_index":173,"time_elapsed":150396,"internal_node_id":"0.0-4.0-2.0-1.2","participant_id":"ucz3c6pm41","prestimulus_duration":887,"correct":false,"type":"MullerLyer","illusion_strength":0,"illusion_difference":0.001,"block_number":2,"trial_number":3},{"rt":null,"stimulus":"<div style=\"font-size:60px;\">+</div>","response":null,"screen":"fixation","trial_type":"html-keyboard-response","trial_index":174,"time_elapsed":151103,"internal_node_id":"0.0-4.0-2.0-0.3","participant_id":"ucz3c6pm41","trial_duration":705},{"rt":580,"stimulus":"stimuli/MullerLyer_str0_diff-0.377615.png","response":"arrowdown","screen":"Trial","block":"MullerLyer","correct_response":"arrowdown","trial_type":"image-keyboard-response","trial_index":175,"time_elapsed":151692,"internal_node_id":"0.0-4.0-2.0-1.3","participant_id":"ucz3c6pm41","prestimulus_duration":707,"correct":true,"type":"MullerLyer","illusion_strength":0,"illusion_difference":-0.37761538461538463,"block_number":2,"trial_number":4},{"rt":null,"stimulus":"<div style=\"font-size:60px;\">+</div>","response":null,"screen":"fixation","trial_type":"html-keyboard-response","trial_index":176,"time_elapsed":152681,"internal_node_id":"0.0-4.0-2.0-0.4","participant_id":"ucz3c6pm41","trial_duration":986},{"rt":489,"stimulus":"stimuli/MullerLyer_str0_diff-0.448231.png","response":"arrowdown","screen":"Trial","block":"MullerLyer","correct_response":"arrowdown","trial_type":"image-keyboard-response","trial_index":177,"time_elapsed":153180,"internal_node_id":"0.0-4.0-2.0-1.4","participant_id":"ucz3c6pm41","prestimulus_duration":989,"correct":true,"type":"MullerLyer","illusion_strength":0,"illusion_difference":-0.44823076923076927,"block_number":2,"trial_number":5},{"rt":null,"stimulus":"<div style=\"font-size:60px;\">+</div>","response":null,"screen":"fixation","trial_type":"html-keyboard-response","trial_index":178,"time_elapsed":153941,"internal_node_id":"0.0-4.0-2.0-0.5","participant_id":"ucz3c6pm41","trial_duration":759},{"rt":509,"stimulus":"stimuli/MullerLyer_str0_diff-0.236385.png","response":"arrowdown","screen":"Trial","block":"MullerLyer","correct_response":"arrowdown","trial_type":"image-keyboard-response","trial_index":179,"time_elapsed":154460,"internal_node_id":"0.0-4.0-2.0-1.5","participant_id":"ucz3c6pm41","prestimulus_duration":761,"correct":true,"type":"MullerLyer","illusion_strength":0,"illusion_difference":-0.2363846153846154,"block_number":2,"trial_number":6},{"rt":null,"stimulus":"<div style=\"font-size:60px;\">+</div>","response":null,"screen":"fixation","trial_type":"html-keyboard-response","trial_index":180,"time_elapsed":155097,"internal_node_id":"0.0-4.0-2.0-0.6","participant_id":"ucz3c6pm41","trial_duration":636},{"rt":761,"stimulus":"stimuli/MullerLyer_str0_diff-0.048077.png","response":"arrowdown","screen":"Trial","block":"MullerLyer","correct_response":"arrowdown","trial_type":"image-keyboard-response","trial_index":181,"time_elapsed":155867,"internal_node_id":"0.0-4.0-2.0-1.6","participant_id":"ucz3c6pm41","prestimulus_duration":637,"correct":true,"type":"MullerLyer","illusion_strength":0,"illusion_difference":-0.04807692307692308,"block_number":2,"trial_number":7},{"rt":null,"stimulus":"<div style=\"font-size:60px;\">+</div>","response":null,"screen":"fixation","trial_type":"html-keyboard-response","trial_index":182,"time_elapsed":156556,"internal_node_id":"0.0-4.0-2.0-0.7","participant_id":"ucz3c6pm41","trial_duration":686},{"rt":677,"stimulus":"stimuli/MullerLyer_str0_diff-0.248154.png","response":"arrowdown","screen":"Trial","block":"MullerLyer","correct_response":"arrowdown","trial_type":"image-keyboard-response","trial_index":183,"time_elapsed":157244,"internal_node_id":"0.0-4.0-2.0-1.7","participant_id":"ucz3c6pm41","prestimulus_duration":689,"correct":true,"type":"MullerLyer","illusion_strength":0,"illusion_difference":-0.24815384615384617,"block_number":2,"trial_number":8},{"rt":null,"stimulus":"<div style=\"font-size:60px;\">+</div>","response":null,"screen":"fixation","trial_type":"html-keyboard-response","trial_index":184,"time_elapsed":157863,"internal_node_id":"0.0-4.0-2.0-0.8","participant_id":"ucz3c6pm41","trial_duration":617},{"rt":683,"stimulus":"stimuli/MullerLyer_str0_diff-0.059846.png","response":"arrowdown","screen":"Trial","block":"MullerLyer","correct_response":"arrowdown","trial_type":"image-keyboard-response","trial_index":185,"time_elapsed":158556,"internal_node_id":"0.0-4.0-2.0-1.8","participant_id":"ucz3c6pm41","prestimulus_duration":619,"correct":true,"type":"MullerLyer","illusion_strength":0,"illusion_difference":-0.05984615384615385,"block_number":2,"trial_number":9},{"rt":null,"stimulus":"<div style=\"font-size:60px;\">+</div>","response":null,"screen":"fixation","trial_type":"html-keyboard-response","trial_index":186,"time_elapsed":159418,"internal_node_id":"0.0-4.0-2.0-0.9","participant_id":"ucz3c6pm41","trial_duration":860},{"rt":711,"stimulus":"stimuli/MullerLyer_str0_diff-0.106923.png","response":"arrowdown","screen":"Trial","block":"MullerLyer","correct_response":"arrowdown","trial_type":"image-keyboard-response","trial_index":187,"time_elapsed":160139,"internal_node_id":"0.0-4.0-2.0-1.9","participant_id":"ucz3c6pm41","prestimulus_duration":862,"correct":true,"type":"MullerLyer","illusion_strength":0,"illusion_difference":-0.10692307692307693,"block_number":2,"trial_number":10},{"rt":null,"stimulus":"<div style=\"font-size:60px;\">+</div>","response":null,"screen":"fixation","trial_type":"html-keyboard-response","trial_index":188,"time_elapsed":160993,"internal_node_id":"0.0-4.0-2.0-0.10","participant_id":"ucz3c6pm41","trial_duration":852},{"rt":512,"stimulus":"stimuli/MullerLyer_str0_diff-0.342308.png","response":"arrowdown","screen":"Trial","block":"MullerLyer","correct_response":"arrowdown","trial_type":"image-keyboard-response","trial_index":189,"time_elapsed":161516,"internal_node_id":"0.0-4.0-2.0-1.10","participant_id":"ucz3c6pm41","prestimulus_duration":854,"correct":true,"type":"MullerLyer","illusion_strength":0,"illusion_difference":-0.3423076923076923,"block_number":2,"trial_number":11},{"rt":null,"stimulus":"<div style=\"font-size:60px;\">+</div>","response":null,"screen":"fixation","trial_type":"html-keyboard-response","trial_index":190,"time_elapsed":162309,"internal_node_id":"0.0-4.0-2.0-0.11","participant_id":"ucz3c6pm41","trial_duration":791},{"rt":588,"stimulus":"stimuli/MullerLyer_str0_diff0.154.png","response":"arrowup","screen":"Trial","block":"MullerLyer","correct_response":"arrowup","trial_type":"image-keyboard-response","trial_index":191,"time_elapsed":162907,"internal_node_id":"0.0-4.0-2.0-1.11","participant_id":"ucz3c6pm41","prestimulus_duration":793,"correct":true,"type":"MullerLyer","illusion_strength":0,"illusion_difference":0.154,"block_number":2,"trial_number":12},{"rt":null,"stimulus":"<div style=\"font-size:60px;\">+</div>","response":null,"screen":"fixation","trial_type":"html-keyboard-response","trial_index":192,"time_elapsed":163768,"internal_node_id":"0.0-4.0-2.0-0.12","participant_id":"ucz3c6pm41","trial_duration":858},{"rt":470,"stimulus":"stimuli/MullerLyer_str0_diff0.118692.png","response":"arrowup","screen":"Trial","block":"MullerLyer","correct_response":"arrowup","trial_type":"image-keyboard-response","trial_index":193,"time_elapsed":164252,"internal_node_id":"0.0-4.0-2.0-1.12","participant_id":"ucz3c6pm41","prestimulus_duration":861,"correct":true,"type":"MullerLyer","illusion_strength":0,"illusion_difference":0.1186923076923077,"block_number":2,"trial_number":13},{"rt":null,"stimulus":"<div style=\"font-size:60px;\">+</div>","response":null,"screen":"fixation","trial_type":"html-keyboard-response","trial_index":194,"time_elapsed":165072,"internal_node_id":"0.0-4.0-2.0-0.13","participant_id":"ucz3c6pm41","trial_duration":817},{"rt":546,"stimulus":"stimuli/MullerLyer_str0_diff-0.224615.png","response":"arrowdown","screen":"Trial","block":"MullerLyer","correct_response":"arrowdown","trial_type":"image-keyboard-response","trial_index":195,"time_elapsed":165628,"internal_node_id":"0.0-4.0-2.0-1.13","participant_id":"ucz3c6pm41","prestimulus_duration":820,"correct":true,"type":"MullerLyer","illusion_strength":0,"illusion_difference":-0.22461538461538463,"block_number":2,"trial_number":14},{"rt":null,"stimulus":"<div style=\"font-size:60px;\">+</div>","response":null,"screen":"fixation","trial_type":"html-keyboard-response","trial_index":196,"time_elapsed":166538,"internal_node_id":"0.0-4.0-2.0-0.14","participant_id":"ucz3c6pm41","trial_duration":907},{"rt":487,"stimulus":"stimuli/MullerLyer_str0_diff-0.412923.png","response":"arrowdown","screen":"Trial","block":"MullerLyer","correct_response":"arrowdown","trial_type":"image-keyboard-response","trial_index":197,"time_elapsed":167036,"internal_node_id":"0.0-4.0-2.0-1.14","participant_id":"ucz3c6pm41","prestimulus_duration":910,"correct":true,"type":"MullerLyer","illusion_strength":0,"illusion_difference":-0.41292307692307695,"block_number":2,"trial_number":15},{"rt":null,"stimulus":"<div style=\"font-size:60px;\">+</div>","response":null,"screen":"fixation","trial_type":"html-keyboard-response","trial_index":198,"time_elapsed":167564,"internal_node_id":"0.0-4.0-2.0-0.15","participant_id":"ucz3c6pm41","trial_duration":527},{"rt":629,"stimulus":"stimuli/MullerLyer_str0_diff0.036308.png","response":"arrowup","screen":"Trial","block":"MullerLyer","correct_response":"arrowup","trial_type":"image-keyboard-response","trial_index":199,"time_elapsed":168205,"internal_node_id":"0.0-4.0-2.0-1.15","participant_id":"ucz3c6pm41","prestimulus_duration":528,"correct":true,"type":"MullerLyer","illusion_strength":0,"illusion_difference":0.03630769230769231,"block_number":2,"trial_number":16},{"rt":null,"stimulus":"<div style=\"font-size:60px;\">+</div>","response":null,"screen":"fixation","trial_type":"html-keyboard-response","trial_index":200,"time_elapsed":168744,"internal_node_id":"0.0-4.0-2.0-0.16","participant_id":"ucz3c6pm41","trial_duration":536},{"rt":617,"stimulus":"stimuli/MullerLyer_str0_diff-0.354077.png","response":"arrowdown","screen":"Trial","block":"MullerLyer","correct_response":"arrowdown","trial_type":"image-keyboard-response","trial_index":201,"time_elapsed":169371,"internal_node_id":"0.0-4.0-2.0-1.16","participant_id":"ucz3c6pm41","prestimulus_duration":539,"correct":true,"type":"MullerLyer","illusion_strength":0,"illusion_difference":-0.35407692307692307,"block_number":2,"trial_number":17},{"rt":null,"stimulus":"<div style=\"font-size:60px;\">+</div>","response":null,"screen":"fixation","trial_type":"html-keyboard-response","trial_index":202,"time_elapsed":170044,"internal_node_id":"0.0-4.0-2.0-0.17","participant_id":"ucz3c6pm41","trial_duration":671},{"rt":582,"stimulus":"stimuli/MullerLyer_str0_diff0.142231.png","response":"arrowup","screen":"Trial","block":"MullerLyer","correct_response":"arrowup","trial_type":"image-keyboard-response","trial_index":203,"time_elapsed":170635,"internal_node_id":"0.0-4.0-2.0-1.17","participant_id":"ucz3c6pm41","prestimulus_duration":673,"correct":true,"type":"MullerLyer","illusion_strength":0,"illusion_difference":0.14223076923076924,"block_number":2,"trial_number":18},{"rt":null,"stimulus":"<div style=\"font-size:60px;\">+</div>","response":null,"screen":"fixation","trial_type":"html-keyboard-response","trial_index":204,"time_elapsed":171289,"internal_node_id":"0.0-4.0-2.0-0.18","participant_id":"ucz3c6pm41","trial_duration":651},{"rt":807,"stimulus":"stimuli/MullerLyer_str0_diff0.071615.png","response":"arrowdown","screen":"Trial","block":"MullerLyer","correct_response":"arrowup","trial_type":"image-keyboard-response","trial_index":205,"time_elapsed":172107,"internal_node_id":"0.0-4.0-2.0-1.18","participant_id":"ucz3c6pm41","prestimulus_duration":654,"correct":false,"type":"MullerLyer","illusion_strength":0,"illusion_difference":0.07161538461538462,"block_number":2,"trial_number":19},{"rt":null,"stimulus":"<div style=\"font-size:60px;\">+</div>","response":null,"screen":"fixation","trial_type":"html-keyboard-response","trial_index":206,"time_elapsed":172918,"internal_node_id":"0.0-4.0-2.0-0.19","participant_id":"ucz3c6pm41","trial_duration":808},{"rt":638,"stimulus":"stimuli/MullerLyer_str0_diff-0.189308.png","response":"arrowdown","screen":"Trial","block":"MullerLyer","correct_response":"arrowdown","trial_type":"image-keyboard-response","trial_index":207,"time_elapsed":173565,"internal_node_id":"0.0-4.0-2.0-1.19","participant_id":"ucz3c6pm41","prestimulus_duration":811,"correct":true,"type":"MullerLyer","illusion_strength":0,"illusion_difference":-0.18930769230769232,"block_number":2,"trial_number":20},{"rt":null,"stimulus":"<div style=\"font-size:60px;\">+</div>","response":null,"screen":"fixation","trial_type":"html-keyboard-response","trial_index":208,"time_elapsed":174111,"internal_node_id":"0.0-4.0-2.0-0.20","participant_id":"ucz3c6pm41","trial_duration":543},{"rt":563,"stimulus":"stimuli/MullerLyer_str0_diff0.212846.png","response":"arrowup","screen":"Trial","block":"MullerLyer","correct_response":"arrowup","trial_type":"image-keyboard-response","trial_index":209,"time_elapsed":174684,"internal_node_id":"0.0-4.0-2.0-1.20","participant_id":"ucz3c6pm41","prestimulus_duration":546,"correct":true,"type":"MullerLyer","illusion_strength":0,"illusion_difference":0.21284615384615385,"block_number":2,"trial_number":21},{"rt":null,"stimulus":"<div style=\"font-size:60px;\">+</div>","response":null,"screen":"fixation","trial_type":"html-keyboard-response","trial_index":210,"time_elapsed":175280,"internal_node_id":"0.0-4.0-2.0-0.21","participant_id":"ucz3c6pm41","trial_duration":594},{"rt":513,"stimulus":"stimuli/MullerLyer_str0_diff0.177538.png","response":"arrowup","screen":"Trial","block":"MullerLyer","correct_response":"arrowup","trial_type":"image-keyboard-response","trial_index":211,"time_elapsed":175804,"internal_node_id":"0.0-4.0-2.0-1.21","participant_id":"ucz3c6pm41","prestimulus_duration":596,"correct":true,"type":"MullerLyer","illusion_strength":0,"illusion_difference":0.17753846153846153,"block_number":2,"trial_number":22},{"rt":null,"stimulus":"<div style=\"font-size:60px;\">+</div>","response":null,"screen":"fixation","trial_type":"html-keyboard-response","trial_index":212,"time_elapsed":176707,"internal_node_id":"0.0-4.0-2.0-0.22","participant_id":"ucz3c6pm41","trial_duration":901},{"rt":526,"stimulus":"stimuli/MullerLyer_str0_diff-0.283462.png","response":"arrowdown","screen":"Trial","block":"MullerLyer","correct_response":"arrowdown","trial_type":"image-keyboard-response","trial_index":213,"time_elapsed":177244,"internal_node_id":"0.0-4.0-2.0-1.22","participant_id":"ucz3c6pm41","prestimulus_duration":903,"correct":true,"type":"MullerLyer","illusion_strength":0,"illusion_difference":-0.2834615384615385,"block_number":2,"trial_number":23},{"rt":null,"stimulus":"<div style=\"font-size:60px;\">+</div>","response":null,"screen":"fixation","trial_type":"html-keyboard-response","trial_index":214,"time_elapsed":178085,"internal_node_id":"0.0-4.0-2.0-0.23","participant_id":"ucz3c6pm41","trial_duration":839},{"rt":573,"stimulus":"stimuli/MullerLyer_str0_diff0.236385.png","response":"arrowup","screen":"Trial","block":"MullerLyer","correct_response":"arrowup","trial_type":"image-keyboard-response","trial_index":215,"time_elapsed":178667,"internal_node_id":"0.0-4.0-2.0-1.23","participant_id":"ucz3c6pm41","prestimulus_duration":841,"correct":true,"type":"MullerLyer","illusion_strength":0,"illusion_difference":0.2363846153846154,"block_number":2,"trial_number":24},{"rt":null,"stimulus":"<div style=\"font-size:60px;\">+</div>","response":null,"screen":"fixation","trial_type":"html-keyboard-response","trial_index":216,"time_elapsed":179233,"internal_node_id":"0.0-4.0-2.0-0.24","participant_id":"ucz3c6pm41","trial_duration":563},{"rt":529,"stimulus":"stimuli/MullerLyer_str0_diff0.330538.png","response":"arrowup","screen":"Trial","block":"MullerLyer","correct_response":"arrowup","trial_type":"image-keyboard-response","trial_index":217,"time_elapsed":179772,"internal_node_id":"0.0-4.0-2.0-1.24","participant_id":"ucz3c6pm41","prestimulus_duration":566,"correct":true,"type":"MullerLyer","illusion_strength":0,"illusion_difference":0.33053846153846156,"block_number":2,"trial_number":25},{"rt":null,"stimulus":"<div style=\"font-size:60px;\">+</div>","response":null,"screen":"fixation","trial_type":"html-keyboard-response","trial_index":218,"time_elapsed":180739,"internal_node_id":"0.0-4.0-2.0-0.25","participant_id":"ucz3c6pm41","trial_duration":965},{"rt":559,"stimulus":"stimuli/MullerLyer_str0_diff-0.389385.png","response":"arrowdown","screen":"Trial","block":"MullerLyer","correct_response":"arrowdown","trial_type":"image-keyboard-response","trial_index":219,"time_elapsed":181308,"internal_node_id":"0.0-4.0-2.0-1.25","participant_id":"ucz3c6pm41","prestimulus_duration":967,"correct":true,"type":"MullerLyer","illusion_strength":0,"illusion_difference":-0.3893846153846154,"block_number":2,"trial_number":26},{"rt":null,"stimulus":"<div style=\"font-size:60px;\">+</div>","response":null,"screen":"fixation","trial_type":"html-keyboard-response","trial_index":220,"time_elapsed":182024,"internal_node_id":"0.0-4.0-2.0-0.26","participant_id":"ucz3c6pm41","trial_duration":713},{"rt":552,"stimulus":"stimuli/MullerLyer_str0_diff0.377615.png","response":"arrowup","screen":"Trial","block":"MullerLyer","correct_response":"arrowup","trial_type":"image-keyboard-response","trial_index":221,"time_elapsed":182586,"internal_node_id":"0.0-4.0-2.0-1.26","participant_id":"ucz3c6pm41","prestimulus_duration":716,"correct":true,"type":"MullerLyer","illusion_strength":0,"illusion_difference":0.37761538461538463,"block_number":2,"trial_number":27},{"rt":null,"stimulus":"<div style=\"font-size:60px;\">+</div>","response":null,"screen":"fixation","trial_type":"html-keyboard-response","trial_index":222,"time_elapsed":183387,"internal_node_id":"0.0-4.0-2.0-0.27","participant_id":"ucz3c6pm41","trial_duration":800},{"rt":501,"stimulus":"stimuli/MullerLyer_str0_diff-0.142231.png","response":"arrowdown","screen":"Trial","block":"MullerLyer","correct_response":"arrowdown","trial_type":"image-keyboard-response","trial_index":223,"time_elapsed":183900,"internal_node_id":"0.0-4.0-2.0-1.27","participant_id":"ucz3c6pm41","prestimulus_duration":801,"correct":true,"type":"MullerLyer","illusion_strength":0,"illusion_difference":-0.14223076923076924,"block_number":2,"trial_number":28},{"rt":null,"stimulus":"<div style=\"font-size:60px;\">+</div>","response":null,"screen":"fixation","trial_type":"html-keyboard-response","trial_index":224,"time_elapsed":184534,"internal_node_id":"0.0-4.0-2.0-0.28","participant_id":"ucz3c6pm41","trial_duration":631},{"rt":492,"stimulus":"stimuli/MullerLyer_str0_diff0.365846.png","response":"arrowup","screen":"Trial","block":"MullerLyer","correct_response":"arrowup","trial_type":"image-keyboard-response","trial_index":225,"time_elapsed":185036,"internal_node_id":"0.0-4.0-2.0-1.28","participant_id":"ucz3c6pm41","prestimulus_duration":634,"correct":true,"type":"MullerLyer","illusion_strength":0,"illusion_difference":0.3658461538461539,"block_number":2,"trial_number":29},{"rt":null,"stimulus":"<div style=\"font-size:60px;\">+</div>","response":null,"screen":"fixation","trial_type":"html-keyboard-response","trial_index":226,"time_elapsed":185756,"internal_node_id":"0.0-4.0-2.0-0.29","participant_id":"ucz3c6pm41","trial_duration":718},{"rt":517,"stimulus":"stimuli/MullerLyer_str0_diff0.271692.png","response":"arrowup","screen":"Trial","block":"MullerLyer","correct_response":"arrowup","trial_type":"image-keyboard-response","trial_index":227,"time_elapsed":186284,"internal_node_id":"0.0-4.0-2.0-1.29","participant_id":"ucz3c6pm41","prestimulus_duration":720,"correct":true,"type":"MullerLyer","illusion_strength":0,"illusion_difference":0.2716923076923077,"block_number":2,"trial_number":30},{"rt":null,"stimulus":"<div style=\"font-size:60px;\">+</div>","response":null,"screen":"fixation","trial_type":"html-keyboard-response","trial_index":228,"time_elapsed":186917,"internal_node_id":"0.0-4.0-2.0-0.30","participant_id":"ucz3c6pm41","trial_duration":630},{"rt":477,"stimulus":"stimuli/MullerLyer_str0_diff-0.46.png","response":"arrowdown","screen":"Trial","block":"MullerLyer","correct_response":"arrowdown","trial_type":"image-keyboard-response","trial_index":229,"time_elapsed":187404,"internal_node_id":"0.0-4.0-2.0-1.30","participant_id":"ucz3c6pm41","prestimulus_duration":633,"correct":true,"type":"MullerLyer","illusion_strength":0,"illusion_difference":-0.46,"block_number":2,"trial_number":31},{"rt":null,"stimulus":"<div style=\"font-size:60px;\">+</div>","response":null,"screen":"fixation","trial_type":"html-keyboard-response","trial_index":230,"time_elapsed":188370,"internal_node_id":"0.0-4.0-2.0-0.31","participant_id":"ucz3c6pm41","trial_duration":964},{"rt":493,"stimulus":"stimuli/MullerLyer_str0_diff0.46.png","response":"arrowup","screen":"Trial","block":"MullerLyer","correct_response":"arrowup","trial_type":"image-keyboard-response","trial_index":231,"time_elapsed":188876,"internal_node_id":"0.0-4.0-2.0-1.31","participant_id":"ucz3c6pm41","prestimulus_duration":966,"correct":true,"type":"MullerLyer","illusion_strength":0,"illusion_difference":0.46,"block_number":2,"trial_number":32},{"rt":null,"stimulus":"<div style=\"font-size:60px;\">+</div>","response":null,"screen":"fixation","trial_type":"html-keyboard-response","trial_index":232,"time_elapsed":189599,"internal_node_id":"0.0-4.0-2.0-0.32","participant_id":"ucz3c6pm41","trial_duration":720},{"rt":530,"stimulus":"stimuli/MullerLyer_str0_diff-0.118692.png","response":"arrowdown","screen":"Trial","block":"MullerLyer","correct_response":"arrowdown","trial_type":"image-keyboard-response","trial_index":233,"time_elapsed":190140,"internal_node_id":"0.0-4.0-2.0-1.32","participant_id":"ucz3c6pm41","prestimulus_duration":723,"correct":true,"type":"MullerLyer","illusion_strength":0,"illusion_difference":-0.1186923076923077,"block_number":2,"trial_number":33},{"rt":null,"stimulus":"<div style=\"font-size:60px;\">+</div>","response":null,"screen":"fixation","trial_type":"html-keyboard-response","trial_index":234,"time_elapsed":190662,"internal_node_id":"0.0-4.0-2.0-0.33","participant_id":"ucz3c6pm41","trial_duration":521},{"rt":685,"stimulus":"stimuli/MullerLyer_str0_diff-0.365846.png","response":"arrowdown","screen":"Trial","block":"MullerLyer","correct_response":"arrowdown","trial_type":"image-keyboard-response","trial_index":235,"time_elapsed":191357,"internal_node_id":"0.0-4.0-2.0-1.33","participant_id":"ucz3c6pm41","prestimulus_duration":522,"correct":true,"type":"MullerLyer","illusion_strength":0,"illusion_difference":-0.3658461538461539,"block_number":2,"trial_number":34},{"rt":null,"stimulus":"<div style=\"font-size:60px;\">+</div>","response":null,"screen":"fixation","trial_type":"html-keyboard-response","trial_index":236,"time_elapsed":192316,"internal_node_id":"0.0-4.0-2.0-0.34","participant_id":"ucz3c6pm41","trial_duration":956},{"rt":517,"stimulus":"stimuli/MullerLyer_str0_diff0.436462.png","response":"arrowup","screen":"Trial","block":"MullerLyer","correct_response":"arrowup","trial_type":"image-keyboard-response","trial_index":237,"time_elapsed":192843,"internal_node_id":"0.0-4.0-2.0-1.34","participant_id":"ucz3c6pm41","prestimulus_duration":959,"correct":true,"type":"MullerLyer","illusion_strength":0,"illusion_difference":0.43646153846153846,"block_number":2,"trial_number":35},{"rt":null,"stimulus":"<div style=\"font-size:60px;\">+</div>","response":null,"screen":"fixation","trial_type":"html-keyboard-response","trial_index":238,"time_elapsed":193474,"internal_node_id":"0.0-4.0-2.0-0.35","participant_id":"ucz3c6pm41","trial_duration":628},{"rt":592,"stimulus":"stimuli/MullerLyer_str0_diff0.059846.png","response":"arrowdown","screen":"Trial","block":"MullerLyer","correct_response":"arrowup","trial_type":"image-keyboard-response","trial_index":239,"time_elapsed":194076,"internal_node_id":"0.0-4.0-2.0-1.35","participant_id":"ucz3c6pm41","prestimulus_duration":631,"correct":false,"type":"MullerLyer","illusion_strength":0,"illusion_difference":0.05984615384615385,"block_number":2,"trial_number":36},{"rt":null,"stimulus":"<div style=\"font-size:60px;\">+</div>","response":null,"screen":"fixation","trial_type":"html-keyboard-response","trial_index":240,"time_elapsed":194930,"internal_node_id":"0.0-4.0-2.0-0.36","participant_id":"ucz3c6pm41","trial_duration":852},{"rt":560,"stimulus":"stimuli/MullerLyer_str0_diff-0.201077.png","response":"arrowdown","screen":"Trial","block":"MullerLyer","correct_response":"arrowdown","trial_type":"image-keyboard-response","trial_index":241,"time_elapsed":195501,"internal_node_id":"0.0-4.0-2.0-1.36","participant_id":"ucz3c6pm41","prestimulus_duration":854,"correct":true,"type":"MullerLyer","illusion_strength":0,"illusion_difference":-0.2010769230769231,"block_number":2,"trial_number":37},{"rt":null,"stimulus":"<div style=\"font-size:60px;\">+</div>","response":null,"screen":"fixation","trial_type":"html-keyboard-response","trial_index":242,"time_elapsed":196082,"internal_node_id":"0.0-4.0-2.0-0.37","participant_id":"ucz3c6pm41","trial_duration":579},{"rt":514,"stimulus":"stimuli/MullerLyer_str0_diff0.389385.png","response":"arrowup","screen":"Trial","block":"MullerLyer","correct_response":"arrowup","trial_type":"image-keyboard-response","trial_index":243,"time_elapsed":196604,"internal_node_id":"0.0-4.0-2.0-1.37","participant_id":"ucz3c6pm41","prestimulus_duration":581,"correct":true,"type":"MullerLyer","illusion_strength":0,"illusion_difference":0.3893846153846154,"block_number":2,"trial_number":38},{"rt":null,"stimulus":"<div style=\"font-size:60px;\">+</div>","response":null,"screen":"fixation","trial_type":"html-keyboard-response","trial_index":244,"time_elapsed":197529,"internal_node_id":"0.0-4.0-2.0-0.38","participant_id":"ucz3c6pm41","trial_duration":922},{"rt":824,"stimulus":"stimuli/MullerLyer_str0_diff-0.012769.png","response":"arrowup","screen":"Trial","block":"MullerLyer","correct_response":"arrowdown","trial_type":"image-keyboard-response","trial_index":245,"time_elapsed":198364,"internal_node_id":"0.0-4.0-2.0-1.38","participant_id":"ucz3c6pm41","prestimulus_duration":925,"correct":false,"type":"MullerLyer","illusion_strength":0,"illusion_difference":-0.012769230769230769,"block_number":2,"trial_number":39},{"rt":null,"stimulus":"<div style=\"font-size:60px;\">+</div>","response":null,"screen":"fixation","trial_type":"html-keyboard-response","trial_index":246,"time_elapsed":199307,"internal_node_id":"0.0-4.0-2.0-0.39","participant_id":"ucz3c6pm41","trial_duration":941},{"rt":695,"stimulus":"stimuli/MullerLyer_str0_diff0.130462.png","response":"arrowup","screen":"Trial","block":"MullerLyer","correct_response":"arrowup","trial_type":"image-keyboard-response","trial_index":247,"time_elapsed":200012,"internal_node_id":"0.0-4.0-2.0-1.39","participant_id":"ucz3c6pm41","prestimulus_duration":943,"correct":true,"type":"MullerLyer","illusion_strength":0,"illusion_difference":0.13046153846153846,"block_number":2,"trial_number":40},{"rt":null,"stimulus":"<div style=\"font-size:60px;\">+</div>","response":null,"screen":"fixation","trial_type":"html-keyboard-response","trial_index":248,"time_elapsed":200893,"internal_node_id":"0.0-4.0-2.0-0.40","participant_id":"ucz3c6pm41","trial_duration":879},{"rt":550,"stimulus":"stimuli/MullerLyer_str0_diff-0.259923.png","response":"arrowdown","screen":"Trial","block":"MullerLyer","correct_response":"arrowdown","trial_type":"image-keyboard-response","trial_index":249,"time_elapsed":201452,"internal_node_id":"0.0-4.0-2.0-1.40","participant_id":"ucz3c6pm41","prestimulus_duration":881,"correct":true,"type":"MullerLyer","illusion_strength":0,"illusion_difference":-0.2599230769230769,"block_number":2,"trial_number":41},{"rt":null,"stimulus":"<div style=\"font-size:60px;\">+</div>","response":null,"screen":"fixation","trial_type":"html-keyboard-response","trial_index":250,"time_elapsed":202148,"internal_node_id":"0.0-4.0-2.0-0.41","participant_id":"ucz3c6pm41","trial_duration":694},{"rt":542,"stimulus":"stimuli/MullerLyer_str0_diff-0.130462.png","response":"arrowdown","screen":"Trial","block":"MullerLyer","correct_response":"arrowdown","trial_type":"image-keyboard-response","trial_index":251,"time_elapsed":202700,"internal_node_id":"0.0-4.0-2.0-1.41","participant_id":"ucz3c6pm41","prestimulus_duration":696,"correct":true,"type":"MullerLyer","illusion_strength":0,"illusion_difference":-0.13046153846153846,"block_number":2,"trial_number":42},{"rt":null,"stimulus":"<div style=\"font-size:60px;\">+</div>","response":null,"screen":"fixation","trial_type":"html-keyboard-response","trial_index":252,"time_elapsed":203581,"internal_node_id":"0.0-4.0-2.0-0.42","participant_id":"ucz3c6pm41","trial_duration":879},{"rt":517,"stimulus":"stimuli/MullerLyer_str0_diff-0.436462.png","response":"arrowdown","screen":"Trial","block":"MullerLyer","correct_response":"arrowdown","trial_type":"image-keyboard-response","trial_index":253,"time_elapsed":204108,"internal_node_id":"0.0-4.0-2.0-1.42","participant_id":"ucz3c6pm41","prestimulus_duration":881,"correct":true,"type":"MullerLyer","illusion_strength":0,"illusion_difference":-0.43646153846153846,"block_number":2,"trial_number":43},{"rt":null,"stimulus":"<div style=\"font-size:60px;\">+</div>","response":null,"screen":"fixation","trial_type":"html-keyboard-response","trial_index":254,"time_elapsed":204737,"internal_node_id":"0.0-4.0-2.0-0.43","participant_id":"ucz3c6pm41","trial_duration":627},{"rt":752,"stimulus":"stimuli/MullerLyer_str0_diff-0.036308.png","response":"arrowup","screen":"Trial","block":"MullerLyer","correct_response":"arrowdown","trial_type":"image-keyboard-response","trial_index":255,"time_elapsed":205499,"internal_node_id":"0.0-4.0-2.0-1.43","participant_id":"ucz3c6pm41","prestimulus_duration":629,"correct":false,"type":"MullerLyer","illusion_strength":0,"illusion_difference":-0.03630769230769231,"block_number":2,"trial_number":44},{"rt":null,"stimulus":"<div style=\"font-size:60px;\">+</div>","response":null,"screen":"fixation","trial_type":"html-keyboard-response","trial_index":256,"time_elapsed":206106,"internal_node_id":"0.0-4.0-2.0-0.44","participant_id":"ucz3c6pm41","trial_duration":604},{"rt":585,"stimulus":"stimuli/MullerLyer_str0_diff0.354077.png","response":"arrowup","screen":"Trial","block":"MullerLyer","correct_response":"arrowup","trial_type":"image-keyboard-response","trial_index":257,"time_elapsed":206700,"internal_node_id":"0.0-4.0-2.0-1.44","participant_id":"ucz3c6pm41","prestimulus_duration":607,"correct":true,"type":"MullerLyer","illusion_strength":0,"illusion_difference":0.35407692307692307,"block_number":2,"trial_number":45},{"rt":null,"stimulus":"<div style=\"font-size:60px;\">+</div>","response":null,"screen":"fixation","trial_type":"html-keyboard-response","trial_index":258,"time_elapsed":207585,"internal_node_id":"0.0-4.0-2.0-0.45","participant_id":"ucz3c6pm41","trial_duration":883},{"rt":561,"stimulus":"stimuli/MullerLyer_str0_diff0.201077.png","response":"arrowup","screen":"Trial","block":"MullerLyer","correct_response":"arrowup","trial_type":"image-keyboard-response","trial_index":259,"time_elapsed":208156,"internal_node_id":"0.0-4.0-2.0-1.45","participant_id":"ucz3c6pm41","prestimulus_duration":885,"correct":true,"type":"MullerLyer","illusion_strength":0,"illusion_difference":0.2010769230769231,"block_number":2,"trial_number":46},{"rt":null,"stimulus":"<div style=\"font-size:60px;\">+</div>","response":null,"screen":"fixation","trial_type":"html-keyboard-response","trial_index":260,"time_elapsed":208828,"internal_node_id":"0.0-4.0-2.0-0.46","participant_id":"ucz3c6pm41","trial_duration":670},{"rt":519,"stimulus":"stimuli/MullerLyer_str0_diff0.295231.png","response":"arrowup","screen":"Trial","block":"MullerLyer","correct_response":"arrowup","trial_type":"image-keyboard-response","trial_index":261,"time_elapsed":209356,"internal_node_id":"0.0-4.0-2.0-1.46","participant_id":"ucz3c6pm41","prestimulus_duration":672,"correct":true,"type":"MullerLyer","illusion_strength":0,"illusion_difference":0.29523076923076924,"block_number":2,"trial_number":47},{"rt":null,"stimulus":"<div style=\"font-size:60px;\">+</div>","response":null,"screen":"fixation","trial_type":"html-keyboard-response","trial_index":262,"time_elapsed":210206,"internal_node_id":"0.0-4.0-2.0-0.47","participant_id":"ucz3c6pm41","trial_duration":848},{"rt":611,"stimulus":"stimuli/MullerLyer_str0_diff-0.271692.png","response":"arrowdown","screen":"Trial","block":"MullerLyer","correct_response":"arrowdown","trial_type":"image-keyboard-response","trial_index":263,"time_elapsed":210827,"internal_node_id":"0.0-4.0-2.0-1.47","participant_id":"ucz3c6pm41","prestimulus_duration":850,"correct":true,"type":"MullerLyer","illusion_strength":0,"illusion_difference":-0.2716923076923077,"block_number":2,"trial_number":48},{"rt":null,"stimulus":"<div style=\"font-size:60px;\">+</div>","response":null,"screen":"fixation","trial_type":"html-keyboard-response","trial_index":264,"time_elapsed":211736,"internal_node_id":"0.0-4.0-2.0-0.48","participant_id":"ucz3c6pm41","trial_duration":906},{"rt":647,"stimulus":"stimuli/MullerLyer_str0_diff-0.024538.png","response":"arrowup","screen":"Trial","block":"MullerLyer","correct_response":"arrowdown","trial_type":"image-keyboard-response","trial_index":265,"time_elapsed":212396,"internal_node_id":"0.0-4.0-2.0-1.48","participant_id":"ucz3c6pm41","prestimulus_duration":909,"correct":false,"type":"MullerLyer","illusion_strength":0,"illusion_difference":-0.02453846153846154,"block_number":2,"trial_number":49},{"rt":null,"stimulus":"<div style=\"font-size:60px;\">+</div>","response":null,"screen":"fixation","trial_type":"html-keyboard-response","trial_index":266,"time_elapsed":213255,"internal_node_id":"0.0-4.0-2.0-0.49","participant_id":"ucz3c6pm41","trial_duration":857},{"rt":539,"stimulus":"stimuli/MullerLyer_str0_diff-0.165769.png","response":"arrowdown","screen":"Trial","block":"MullerLyer","correct_response":"arrowdown","trial_type":"image-keyboard-response","trial_index":267,"time_elapsed":213804,"internal_node_id":"0.0-4.0-2.0-1.49","participant_id":"ucz3c6pm41","prestimulus_duration":859,"correct":true,"type":"MullerLyer","illusion_strength":0,"illusion_difference":-0.16576923076923078,"block_number":2,"trial_number":50},{"rt":null,"stimulus":"<div style=\"font-size:60px;\">+</div>","response":null,"screen":"fixation","trial_type":"html-keyboard-response","trial_index":268,"time_elapsed":214784,"internal_node_id":"0.0-4.0-2.0-0.50","participant_id":"ucz3c6pm41","trial_duration":978},{"rt":497,"stimulus":"stimuli/MullerLyer_str0_diff-0.154.png","response":"arrowdown","screen":"Trial","block":"MullerLyer","correct_response":"arrowdown","trial_type":"image-keyboard-response","trial_index":269,"time_elapsed":215292,"internal_node_id":"0.0-4.0-2.0-1.50","participant_id":"ucz3c6pm41","prestimulus_duration":980,"correct":true,"type":"MullerLyer","illusion_strength":0,"illusion_difference":-0.154,"block_number":2,"trial_number":51},{"rt":null,"stimulus":"<div style=\"font-size:60px;\">+</div>","response":null,"screen":"fixation","trial_type":"html-keyboard-response","trial_index":270,"time_elapsed":215907,"internal_node_id":"0.0-4.0-2.0-0.51","participant_id":"ucz3c6pm41","trial_duration":613},{"rt":576,"stimulus":"stimuli/MullerLyer_str0_diff0.342308.png","response":"arrowup","screen":"Trial","block":"MullerLyer","correct_response":"arrowup","trial_type":"image-keyboard-response","trial_index":271,"time_elapsed":216493,"internal_node_id":"0.0-4.0-2.0-1.51","participant_id":"ucz3c6pm41","prestimulus_duration":615,"correct":true,"type":"MullerLyer","illusion_strength":0,"illusion_difference":0.3423076923076923,"block_number":2,"trial_number":52},{"rt":null,"stimulus":"<div style=\"font-size:60px;\">+</div>","response":null,"screen":"fixation","trial_type":"html-keyboard-response","trial_index":272,"time_elapsed":217326,"internal_node_id":"0.0-4.0-2.0-0.52","participant_id":"ucz3c6pm41","trial_duration":830},{"rt":803,"stimulus":"stimuli/MullerLyer_str0_diff0.248154.png","response":"arrowup","screen":"Trial","block":"MullerLyer","correct_response":"arrowup","trial_type":"image-keyboard-response","trial_index":273,"time_elapsed":218140,"internal_node_id":"0.0-4.0-2.0-1.52","participant_id":"ucz3c6pm41","prestimulus_duration":833,"correct":true,"type":"MullerLyer","illusion_strength":0,"illusion_difference":0.24815384615384617,"block_number":2,"trial_number":53},{"rt":null,"stimulus":"<div style=\"font-size:60px;\">+</div>","response":null,"screen":"fixation","trial_type":"html-keyboard-response","trial_index":274,"time_elapsed":218857,"internal_node_id":"0.