[{"success":true,"trial_type":"fullscreen","trial_index":0,"time_elapsed":6713,"internal_node_id":"0.0-0.0","participant_id":"9ujp95f4ye"},{"success":true,"timeout":false,"failed_images":[],"failed_audio":[],"failed_video":[],"trial_type":"preload","trial_index":1,"time_elapsed":6863,"internal_node_id":"0.0-1.0","participant_id":"9ujp95f4ye"},{"rt":13429,"stimulus":"<p><b>The Illusion Game</b></p><p>In this game of speed and reflex, you will need to make <b>visual judgments</b> of different targets (for instance, which circle is the biggest, or which line is the longest), as <b>quickly</b> and as <b>accurately</b> as possible.</p><p>It can be challenging at times, so you want to rely on your intuition and gut feeling to answer as fast as you can, without making errors.</p><p>A score will be computed based on your speed and accuracy and will be displayed after each block.</p><br><p>Don't worry, we will show you examples of each target before each block.</p><p>Remember, your goal is to be as <b>fast</b> and <b>accurate</b> as possible. Good luck!</p>","response":0,"screen":"general_instructions","trial_type":"html-button-response","trial_index":2,"time_elapsed":20294,"internal_node_id":"0.0-2.0","participant_id":"9ujp95f4ye"},{"success":true,"timeout":false,"failed_images":[],"failed_audio":[],"failed_video":[],"trial_type":"preload","trial_index":3,"time_elapsed":21173,"internal_node_id":"0.0-3.0-0.0","participant_id":"9ujp95f4ye"},{"rt":9601,"stimulus":"<p><b>Part 1</b></p><p>In this part, two red circles will appear side by side on the screen.</p><p>Your task is to select which <b>red circle is bigger</b> in size as fast as you can, without making errors.</p><p>Press <b>the LEFT or the RIGHT arrow</b> to indicate which is the bigger <b>red circle.</b></p><div style='float: center'><img src='utils/stimuli_demo/Delboeuf_Demo.png' height='300'></img><p><img src='utils/answer/answer_leftright_keyboard.PNG' height='150'></img></p><p class='small'>In this example, the correct answer is the <b>LEFT arrow</b>.</p></div><p>Are you ready? <b>Press ENTER to start</b></p>","response":"enter","trial_type":"html-keyboard-response","trial_index":4,"time_elapsed":30777,"internal_node_id":"0.0-3.0-1.0","participant_id":"9ujp95f4ye"},{"rt":null,"stimulus":"<div style=\"font-size:60px;\">+</div>","response":null,"screen":"fixation","trial_type":"html-keyboard-response","trial_index":5,"time_elapsed":32193,"internal_node_id":"0.0-3.0-2.0-0.0","participant_id":"9ujp95f4ye","trial_duration":901},{"rt":576,"stimulus":"stimuli/Delboeuf_str0_diff-0.516613.png","response":"arrowright","screen":"Trial","block":"Delboeuf","correct_response":"arrowright","trial_type":"image-keyboard-response","trial_index":6,"time_elapsed":32786,"internal_node_id":"0.0-3.0-2.0-1.0","participant_id":"9ujp95f4ye","prestimulus_duration":1416,"correct":true,"type":"Delboeuf","illusion_strength":0,"illusion_difference":-0.5166129032258064,"block_number":1,"trial_number":1},{"rt":null,"stimulus":"<div style=\"font-size:60px;\">+</div>","response":null,"screen":"fixation","trial_type":"html-keyboard-response","trial_index":7,"time_elapsed":33332,"internal_node_id":"0.0-3.0-2.0-0.1","participant_id":"9ujp95f4ye","trial_duration":532},{"rt":456,"stimulus":"stimuli/Delboeuf_str0_diff0.033226.png","response":"arrowright","screen":"Trial","block":"Delboeuf","correct_response":"arrowleft","trial_type":"image-keyboard-response","trial_index":8,"time_elapsed":33791,"internal_node_id":"0.0-3.0-2.0-1.1","participant_id":"9ujp95f4ye","prestimulus_duration":546,"correct":false,"type":"Delboeuf","illusion_strength":0,"illusion_difference":0.0332258064516129,"block_number":1,"trial_number":2},{"rt":null,"stimulus":"<div style=\"font-size:60px;\">+</div>","response":null,"screen":"fixation","trial_type":"html-keyboard-response","trial_index":9,"time_elapsed":34487,"internal_node_id":"0.0-3.0-2.0-0.2","participant_id":"9ujp95f4ye","trial_duration":686},{"rt":471,"stimulus":"stimuli/Delboeuf_str0_diff0.129903.png","response":"arrowleft","screen":"Trial","block":"Delboeuf","correct_response":"arrowleft","trial_type":"image-keyboard-response","trial_index":10,"time_elapsed":34959,"internal_node_id":"0.0-3.0-2.0-1.2","participant_id":"9ujp95f4ye","prestimulus_duration":696,"correct":true,"type":"Delboeuf","illusion_strength":0,"illusion_difference":0.1299032258064516,"block_number":1,"trial_number":3},{"rt":null,"stimulus":"<div style=\"font-size:60px;\">+</div>","response":null,"screen":"fixation","trial_type":"html-keyboard-response","trial_index":11,"time_elapsed":35957,"internal_node_id":"0.0-3.0-2.0-0.3","participant_id":"9ujp95f4ye","trial_duration":985},{"rt":424,"stimulus":"stimuli/Delboeuf_str0_diff-0.291032.png","response":"arrowright","screen":"Trial","block":"Delboeuf","correct_response":"arrowright","trial_type":"image-keyboard-response","trial_index":12,"time_elapsed":36386,"internal_node_id":"0.0-3.0-2.0-1.3","participant_id":"9ujp95f4ye","prestimulus_duration":998,"correct":true,"type":"Delboeuf","illusion_strength":0,"illusion_difference":-0.2910322580645161,"block_number":1,"trial_number":4},{"rt":null,"stimulus":"<div style=\"font-size:60px;\">+</div>","response":null,"screen":"fixation","trial_type":"html-keyboard-response","trial_index":13,"time_elapsed":37148,"internal_node_id":"0.0-3.0-2.0-0.4","participant_id":"9ujp95f4ye","trial_duration":749},{"rt":382,"stimulus":"stimuli/Delboeuf_str0_diff0.419935.png","response":"arrowleft","screen":"Trial","block":"Delboeuf","correct_response":"arrowleft","trial_type":"image-keyboard-response","trial_index":14,"time_elapsed":37535,"internal_node_id":"0.0-3.0-2.0-1.4","participant_id":"9ujp95f4ye","prestimulus_duration":762,"correct":true,"type":"Delboeuf","illusion_strength":0,"illusion_difference":0.41993548387096774,"block_number":1,"trial_number":5},{"rt":null,"stimulus":"<div style=\"font-size:60px;\">+</div>","response":null,"screen":"fixation","trial_type":"html-keyboard-response","trial_index":15,"time_elapsed":38398,"internal_node_id":"0.0-3.0-2.0-0.5","participant_id":"9ujp95f4ye","trial_duration":853},{"rt":448,"stimulus":"stimuli/Delboeuf_str0_diff-0.162129.png","response":"arrowright","screen":"Trial","block":"Delboeuf","correct_response":"arrowright","trial_type":"image-keyboard-response","trial_index":16,"time_elapsed":38850,"internal_node_id":"0.0-3.0-2.0-1.5","participant_id":"9ujp95f4ye","prestimulus_duration":863,"correct":true,"type":"Delboeuf","illusion_strength":0,"illusion_difference":-0.16212903225806452,"block_number":1,"trial_number":6},{"rt":null,"stimulus":"<div style=\"font-size:60px;\">+</div>","response":null,"screen":"fixation","trial_type":"html-keyboard-response","trial_index":17,"time_elapsed":39756,"internal_node_id":"0.0-3.0-2.0-0.6","participant_id":"9ujp95f4ye","trial_duration":892},{"rt":332,"stimulus":"stimuli/Delboeuf_str0_diff-0.709968.png","response":"arrowright","screen":"Trial","block":"Delboeuf","correct_response":"arrowright","trial_type":"image-keyboard-response","trial_index":18,"time_elapsed":40090,"internal_node_id":"0.0-3.0-2.0-1.6","participant_id":"9ujp95f4ye","prestimulus_duration":906,"correct":true,"type":"Delboeuf","illusion_strength":0,"illusion_difference":-0.7099677419354838,"block_number":1,"trial_number":7},{"rt":null,"stimulus":"<div style=\"font-size:60px;\">+</div>","response":null,"screen":"fixation","trial_type":"html-keyboard-response","trial_index":19,"time_elapsed":40819,"internal_node_id":"0.0-3.0-2.0-0.7","participant_id":"9ujp95f4ye","trial_duration":714},{"rt":363,"stimulus":"stimuli/Delboeuf_str0_diff0.967774.png","response":"arrowleft","screen":"Trial","block":"Delboeuf","correct_response":"arrowleft","trial_type":"image-keyboard-response","trial_index":20,"time_elapsed":41185,"internal_node_id":"0.0-3.0-2.0-1.7","participant_id":"9ujp95f4ye","prestimulus_duration":729,"correct":true,"type":"Delboeuf","illusion_strength":0,"illusion_difference":0.9677741935483871,"block_number":1,"trial_number":8},{"rt":null,"stimulus":"<div style=\"font-size:60px;\">+</div>","response":null,"screen":"fixation","trial_type":"html-keyboard-response","trial_index":21,"time_elapsed":42115,"internal_node_id":"0.0-3.0-2.0-0.8","participant_id":"9ujp95f4ye","trial_duration":913},{"rt":360,"stimulus":"stimuli/Delboeuf_str0_diff-0.871097.png","response":"arrowright","screen":"Trial","block":"Delboeuf","correct_response":"arrowright","trial_type":"image-keyboard-response","trial_index":22,"time_elapsed":42476,"internal_node_id":"0.0-3.0-2.0-1.8","participant_id":"9ujp95f4ye","prestimulus_duration":930,"correct":true,"type":"Delboeuf","illusion_strength":0,"illusion_difference":-0.8710967741935484,"block_number":1,"trial_number":9},{"rt":null,"stimulus":"<div style=\"font-size:60px;\">+</div>","response":null,"screen":"fixation","trial_type":"html-keyboard-response","trial_index":23,"time_elapsed":43365,"internal_node_id":"0.0-3.0-2.0-0.9","participant_id":"9ujp95f4ye","trial_duration":875},{"rt":370,"stimulus":"stimuli/Delboeuf_str0_diff0.484387.png","response":"arrowleft","screen":"Trial","block":"Delboeuf","correct_response":"arrowleft","trial_type":"image-keyboard-response","trial_index":24,"time_elapsed":43737,"internal_node_id":"0.0-3.0-2.0-1.9","participant_id":"9ujp95f4ye","prestimulus_duration":889,"correct":true,"type":"Delboeuf","illusion_strength":0,"illusion_difference":0.48438709677419356,"block_number":1,"trial_number":10},{"rt":null,"stimulus":"<div style=\"font-size:60px;\">+</div>","response":null,"screen":"fixation","trial_type":"html-keyboard-response","trial_index":25,"time_elapsed":44697,"internal_node_id":"0.0-3.0-2.0-0.10","participant_id":"9ujp95f4ye","trial_duration":955},{"rt":358,"stimulus":"stimuli/Delboeuf_str0_diff-0.774419.png","response":"arrowright","screen":"Trial","block":"Delboeuf","correct_response":"arrowright","trial_type":"image-keyboard-response","trial_index":26,"time_elapsed":45057,"internal_node_id":"0.0-3.0-2.0-1.10","participant_id":"9ujp95f4ye","prestimulus_duration":960,"correct":true,"type":"Delboeuf","illusion_strength":0,"illusion_difference":-0.7744193548387096,"block_number":1,"trial_number":11},{"rt":null,"stimulus":"<div style=\"font-size:60px;\">+</div>","response":null,"screen":"fixation","trial_type":"html-keyboard-response","trial_index":27,"time_elapsed":45612,"internal_node_id":"0.0-3.0-2.0-0.11","participant_id":"9ujp95f4ye","trial_duration":538},{"rt":403,"stimulus":"stimuli/Delboeuf_str0_diff-0.967774.png","response":"arrowright","screen":"Trial","block":"Delboeuf","correct_response":"arrowright","trial_type":"image-keyboard-response","trial_index":28,"time_elapsed":46017,"internal_node_id":"0.0-3.0-2.0-1.11","participant_id":"9ujp95f4ye","prestimulus_duration":555,"correct":true,"type":"Delboeuf","illusion_strength":0,"illusion_difference":-0.9677741935483871,"block_number":1,"trial_number":12},{"rt":null,"stimulus":"<div style=\"font-size:60px;\">+</div>","response":null,"screen":"fixation","trial_type":"html-keyboard-response","trial_index":29,"time_elapsed":46830,"internal_node_id":"0.0-3.0-2.0-0.12","participant_id":"9ujp95f4ye","trial_duration":809},{"rt":322,"stimulus":"stimuli/Delboeuf_str0_diff-1.0.png","response":"arrowright","screen":"Trial","block":"Delboeuf","correct_response":"arrowright","trial_type":"image-keyboard-response","trial_index":30,"time_elapsed":47153,"internal_node_id":"0.0-3.0-2.0-1.12","participant_id":"9ujp95f4ye","prestimulus_duration":813,"correct":true,"type":"Delboeuf","illusion_strength":0,"illusion_difference":-1,"block_number":1,"trial_number":13},{"rt":null,"stimulus":"<div style=\"font-size:60px;\">+</div>","response":null,"screen":"fixation","trial_type":"html-keyboard-response","trial_index":31,"time_elapsed":48000,"internal_node_id":"0.0-3.0-2.0-0.13","participant_id":"9ujp95f4ye","trial_duration":836},{"rt":397,"stimulus":"stimuli/Delboeuf_str0_diff0.258806.png","response":"arrowleft","screen":"Trial","block":"Delboeuf","correct_response":"arrowleft","trial_type":"image-keyboard-response","trial_index":32,"time_elapsed":48401,"internal_node_id":"0.0-3.0-2.0-1.13","participant_id":"9ujp95f4ye","prestimulus_duration":847,"correct":true,"type":"Delboeuf","illusion_strength":0,"illusion_difference":0.2588064516129032,"block_number":1,"trial_number":14},{"rt":null,"stimulus":"<div style=\"font-size:60px;\">+</div>","response":null,"screen":"fixation","trial_type":"html-keyboard-response","trial_index":33,"time_elapsed":49306,"internal_node_id":"0.0-3.0-2.0-0.14","participant_id":"9ujp95f4ye","trial_duration":888},{"rt":382,"stimulus":"stimuli/Delboeuf_str0_diff-0.677742.png","response":"arrowright","screen":"Trial","block":"Delboeuf","correct_response":"arrowright","trial_type":"image-keyboard-response","trial_index":34,"time_elapsed":49689,"internal_node_id":"0.0-3.0-2.0-1.14","participant_id":"9ujp95f4ye","prestimulus_duration":905,"correct":true,"type":"Delboeuf","illusion_strength":0,"illusion_difference":-0.677741935483871,"block_number":1,"trial_number":15},{"rt":null,"stimulus":"<div style=\"font-size:60px;\">+</div>","response":null,"screen":"fixation","trial_type":"html-keyboard-response","trial_index":35,"time_elapsed":50321,"internal_node_id":"0.0-3.0-2.0-0.15","participant_id":"9ujp95f4ye","trial_duration":616},{"rt":439,"stimulus":"stimuli/Delboeuf_str0_diff0.291032.png","response":"arrowleft","screen":"Trial","block":"Delboeuf","correct_response":"arrowleft","trial_type":"image-keyboard-response","trial_index":36,"time_elapsed":50775,"internal_node_id":"0.0-3.0-2.0-1.15","participant_id":"9ujp95f4ye","prestimulus_duration":632,"correct":true,"type":"Delboeuf","illusion_strength":0,"illusion_difference":0.2910322580645161,"block_number":1,"trial_number":16},{"rt":null,"stimulus":"<div style=\"font-size:60px;\">+</div>","response":null,"screen":"fixation","trial_type":"html-keyboard-response","trial_index":37,"time_elapsed":51711,"internal_node_id":"0.0-3.0-2.0-0.16","participant_id":"9ujp95f4ye","trial_duration":924},{"rt":462,"stimulus":"stimuli/Delboeuf_str0_diff0.645516.png","response":"arrowleft","screen":"Trial","block":"Delboeuf","correct_response":"arrowleft","trial_type":"image-keyboard-response","trial_index":38,"time_elapsed":52177,"internal_node_id":"0.0-3.0-2.0-1.16","participant_id":"9ujp95f4ye","prestimulus_duration":936,"correct":true,"type":"Delboeuf","illusion_strength":0,"illusion_difference":0.6455161290322581,"block_number":1,"trial_number":17},{"rt":null,"stimulus":"<div style=\"font-size:60px;\">+</div>","response":null,"screen":"fixation","trial_type":"html-keyboard-response","trial_index":39,"time_elapsed":52952,"internal_node_id":"0.0-3.0-2.0-0.17","participant_id":"9ujp95f4ye","trial_duration":760},{"rt":424,"stimulus":"stimuli/Delboeuf_str0_diff0.871097.png","response":"arrowleft","screen":"Trial","block":"Delboeuf","correct_response":"arrowleft","trial_type":"image-keyboard-response","trial_index":40,"time_elapsed":53377,"internal_node_id":"0.0-3.0-2.0-1.17","participant_id":"9ujp95f4ye","prestimulus_duration":775,"correct":true,"type":"Delboeuf","illusion_strength":0,"illusion_difference":0.8710967741935484,"block_number":1,"trial_number":18},{"rt":null,"stimulus":"<div style=\"font-size:60px;\">+</div>","response":null,"screen":"fixation","trial_type":"html-keyboard-response","trial_index":41,"time_elapsed":54072,"internal_node_id":"0.0-3.0-2.0-0.18","participant_id":"9ujp95f4ye","trial_duration":690},{"rt":405,"stimulus":"stimuli/Delboeuf_str0_diff0.677742.png","response":"arrowleft","screen":"Trial","block":"Delboeuf","correct_response":"arrowleft","trial_type":"image-keyboard-response","trial_index":42,"time_elapsed":54481,"internal_node_id":"0.0-3.0-2.0-1.18","participant_id":"9ujp95f4ye","prestimulus_duration":695,"correct":true,"type":"Delboeuf","illusion_strength":0,"illusion_difference":0.677741935483871,"block_number":1,"trial_number":19},{"rt":null,"stimulus":"<div style=\"font-size:60px;\">+</div>","response":null,"screen":"fixation","trial_type":"html-keyboard-response","trial_index":43,"time_elapsed":55243,"internal_node_id":"0.0-3.0-2.0-0.19","participant_id":"9ujp95f4ye","trial_duration":758},{"rt":443,"stimulus":"stimuli/Delboeuf_str0_diff-0.065452.png","response":"arrowright","screen":"Trial","block":"Delboeuf","correct_response":"arrowright","trial_type":"image-keyboard-response","trial_index":44,"time_elapsed":55689,"internal_node_id":"0.0-3.0-2.0-1.19","participant_id":"9ujp95f4ye","prestimulus_duration":762,"correct":true,"type":"Delboeuf","illusion_strength":0,"illusion_difference":-0.0654516129032258,"block_number":1,"trial_number":20},{"rt":null,"stimulus":"<div style=\"font-size:60px;\">+</div>","response":null,"screen":"fixation","trial_type":"html-keyboard-response","trial_index":45,"time_elapsed":56662,"internal_node_id":"0.0-3.0-2.0-0.20","participant_id":"9ujp95f4ye","trial_duration":969},{"rt":416,"stimulus":"stimuli/Delboeuf_str0_diff-0.129903.png","response":"arrowright","screen":"Trial","block":"Delboeuf","correct_response":"arrowright","trial_type":"image-keyboard-response","trial_index":46,"time_elapsed":57081,"internal_node_id":"0.0-3.0-2.0-1.20","participant_id":"9ujp95f4ye","prestimulus_duration":973,"correct":true,"type":"Delboeuf","illusion_strength":0,"illusion_difference":-0.1299032258064516,"block_number":1,"trial_number":21},{"rt":null,"stimulus":"<div style=\"font-size:60px;\">+</div>","response":null,"screen":"fixation","trial_type":"html-keyboard-response","trial_index":47,"time_elapsed":57805,"internal_node_id":"0.0-3.0-2.0-0.21","participant_id":"9ujp95f4ye","trial_duration":718},{"rt":696,"stimulus":"stimuli/Delboeuf_str0_diff0.774419.png","response":"arrowleft","screen":"Trial","block":"Delboeuf","correct_response":"arrowleft","trial_type":"image-keyboard-response","trial_index":48,"time_elapsed":58503,"internal_node_id":"0.0-3.0-2.0-1.21","participant_id":"9ujp95f4ye","prestimulus_duration":724,"correct":true,"type":"Delboeuf","illusion_strength":0,"illusion_difference":0.7744193548387096,"block_number":1,"trial_number":22},{"rt":null,"stimulus":"<div style=\"font-size:60px;\">+</div>","response":null,"screen":"fixation","trial_type":"html-keyboard-response","trial_index":49,"time_elapsed":59445,"internal_node_id":"0.0-3.0-2.0-0.22","participant_id":"9ujp95f4ye","trial_duration":939},{"rt":452,"stimulus":"stimuli/Delboeuf_str0_diff0.38771.png","response":"arrowleft","screen":"Trial","block":"Delboeuf","correct_response":"arrowleft","trial_type":"image-keyboard-response","trial_index":50,"time_elapsed":59937,"internal_node_id":"0.0-3.0-2.0-1.22","participant_id":"9ujp95f4ye","prestimulus_duration":942,"correct":true,"type":"Delboeuf","illusion_strength":0,"illusion_difference":0.3877096774193548,"block_number":1,"trial_number":23},{"rt":null,"stimulus":"<div style=\"font-size:60px;\">+</div>","response":null,"screen":"fixation","trial_type":"html-keyboard-response","trial_index":51,"time_elapsed":60802,"internal_node_id":"0.0-3.0-2.0-0.23","participant_id":"9ujp95f4ye","trial_duration":861},{"rt":391,"stimulus":"stimuli/Delboeuf_str0_diff0.548839.png","response":"arrowleft","screen":"Trial","block":"Delboeuf","correct_response":"arrowleft","trial_type":"image-keyboard-response","trial_index":52,"time_elapsed":61195,"internal_node_id":"0.0-3.0-2.0-1.23","participant_id":"9ujp95f4ye","prestimulus_duration":865,"correct":true,"type":"Delboeuf","illusion_strength":0,"illusion_difference":0.5488387096774193,"block_number":1,"trial_number":24},{"rt":null,"stimulus":"<div style=\"font-size:60px;\">+</div>","response":null,"screen":"fixation","trial_type":"html-keyboard-response","trial_index":53,"time_elapsed":62099,"internal_node_id":"0.0-3.0-2.0-0.24","participant_id":"9ujp95f4ye","trial_duration":902},{"rt":337,"stimulus":"stimuli/Delboeuf_str0_diff-0.645516.png","response":"arrowright","screen":"Trial","block":"Delboeuf","correct_response":"arrowright","trial_type":"image-keyboard-response","trial_index":54,"time_elapsed":62440,"internal_node_id":"0.0-3.0-2.0-1.24","participant_id":"9ujp95f4ye","prestimulus_duration":904,"correct":true,"type":"Delboeuf","illusion_strength":0,"illusion_difference":-0.6455161290322581,"block_number":1,"trial_number":25},{"rt":null,"stimulus":"<div style=\"font-size:60px;\">+</div>","response":null,"screen":"fixation","trial_type":"html-keyboard-response","trial_index":55,"time_elapsed":63118,"internal_node_id":"0.0-3.0-2.0-0.25","participant_id":"9ujp95f4ye","trial_duration":663},{"rt":372,"stimulus":"stimuli/Delboeuf_str0_diff-0.419935.png","response":"arrowright","screen":"Trial","block":"Delboeuf","correct_response":"arrowright","trial_type":"image-keyboard-response","trial_index":56,"time_elapsed":63495,"internal_node_id":"0.0-3.0-2.0-1.25","participant_id":"9ujp95f4ye","prestimulus_duration":678,"correct":true,"type":"Delboeuf","illusion_strength":0,"illusion_difference":-0.41993548387096774,"block_number":1,"trial_number":26},{"rt":null,"stimulus":"<div style=\"font-size:60px;\">+</div>","response":null,"screen":"fixation","trial_type":"html-keyboard-response","trial_index":57,"time_elapsed":64463,"internal_node_id":"0.0-3.0-2.0-0.26","participant_id":"9ujp95f4ye","trial_duration":963},{"rt":390,"stimulus":"stimuli/Delboeuf_str0_diff0.709968.png","response":"arrowleft","screen":"Trial","block":"Delboeuf","correct_response":"arrowleft","trial_type":"image-keyboard-response","trial_index":58,"time_elapsed":64857,"internal_node_id":"0.0-3.0-2.0-1.26","participant_id":"9ujp95f4ye","prestimulus_duration":968,"correct":true,"type":"Delboeuf","illusion_strength":0,"illusion_difference":0.7099677419354838,"block_number":1,"trial_number":27},{"rt":null,"stimulus":"<div style=\"font-size:60px;\">+</div>","response":null,"screen":"fixation","trial_type":"html-keyboard-response","trial_index":59,"time_elapsed":65621,"internal_node_id":"0.0-3.0-2.0-0.27","participant_id":"9ujp95f4ye","trial_duration":751},{"rt":425,"stimulus":"stimuli/Delboeuf_str0_diff-0.38771.png","response":"arrowright","screen":"Trial","block":"Delboeuf","correct_response":"arrowright","trial_type":"image-keyboard-response","trial_index":60,"time_elapsed":66049,"internal_node_id":"0.0-3.0-2.0-1.27","participant_id":"9ujp95f4ye","prestimulus_duration":764,"correct":true,"type":"Delboeuf","illusion_strength":0,"illusion_difference":-0.3877096774193548,"block_number":1,"trial_number":28},{"rt":null,"stimulus":"<div style=\"font-size:60px;\">+</div>","response":null,"screen":"fixation","trial_type":"html-keyboard-response","trial_index":61,"time_elapsed":66841,"internal_node_id":"0.0-3.0-2.0-0.28","participant_id":"9ujp95f4ye","trial_duration":787},{"rt":525,"stimulus":"stimuli/Delboeuf_str0_diff0.065452.png","response":"arrowleft","screen":"Trial","block":"Delboeuf","correct_response":"arrowleft","trial_type":"image-keyboard-response","trial_index":62,"time_elapsed":67367,"internal_node_id":"0.0-3.0-2.0-1.28","participant_id":"9ujp95f4ye","prestimulus_duration":792,"correct":true,"type":"Delboeuf","illusion_strength":0,"illusion_difference":0.0654516129032258,"block_number":1,"trial_number":29},{"rt":null,"stimulus":"<div style=\"font-size:60px;\">+</div>","response":null,"screen":"fixation","trial_type":"html-keyboard-response","trial_index":63,"time_elapsed":68289,"internal_node_id":"0.0-3.0-2.0-0.29","participant_id":"9ujp95f4ye","trial_duration":915},{"rt":386,"stimulus":"stimuli/Delboeuf_str0_diff-0.838871.png","response":"arrowright","screen":"Trial","block":"Delboeuf","correct_response":"arrowright","trial_type":"image-keyboard-response","trial_index":64,"time_elapsed":68679,"internal_node_id":"0.0-3.0-2.0-1.29","participant_id":"9ujp95f4ye","prestimulus_duration":922,"correct":true,"type":"Delboeuf","illusion_strength":0,"illusion_difference":-0.8388709677419355,"block_number":1,"trial_number":30},{"rt":null,"stimulus":"<div style=\"font-size:60px;\">+</div>","response":null,"screen":"fixation","trial_type":"html-keyboard-response","trial_index":65,"time_elapsed":69348,"internal_node_id":"0.0-3.0-2.0-0.30","participant_id":"9ujp95f4ye","trial_duration":666},{"rt":405,"stimulus":"stimuli/Delboeuf_str0_diff-0.742194.png","response":"arrowright","screen":"Trial","block":"Delboeuf","correct_response":"arrowright","trial_type":"image-keyboard-response","trial_index":66,"time_elapsed":69758,"internal_node_id":"0.0-3.0-2.0-1.30","participant_id":"9ujp95f4ye","prestimulus_duration":669,"correct":true,"type":"Delboeuf","illusion_strength":0,"illusion_difference":-0.7421935483870967,"block_number":1,"trial_number":31},{"rt":null,"stimulus":"<div style=\"font-size:60px;\">+</div>","response":null,"screen":"fixation","trial_type":"html-keyboard-response","trial_index":67,"time_elapsed":70471,"internal_node_id":"0.0-3.0-2.0-0.31","participant_id":"9ujp95f4ye","trial_duration":696},{"rt":432,"stimulus":"stimuli/Delboeuf_str0_diff0.226581.png","response":"arrowleft","screen":"Trial","block":"Delboeuf","correct_response":"arrowleft","trial_type":"image-keyboard-response","trial_index":68,"time_elapsed":70904,"internal_node_id":"0.0-3.0-2.0-1.31","participant_id":"9ujp95f4ye","prestimulus_duration":713,"correct":true,"type":"Delboeuf","illusion_strength":0,"illusion_difference":0.2265806451612903,"block_number":1,"trial_number":32},{"rt":null,"stimulus":"<div style=\"font-size:60px;\">+</div>","response":null,"screen":"fixation","trial_type":"html-keyboard-response","trial_index":69,"time_elapsed":71798,"internal_node_id":"0.0-3.0-2.0-0.32","participant_id":"9ujp95f4ye","trial_duration":891},{"rt":328,"stimulus":"stimuli/Delboeuf_str0_diff-0.806645.png","response":"arrowright","screen":"Trial","block":"Delboeuf","correct_response":"arrowright","trial_type":"image-keyboard-response","trial_index":70,"time_elapsed":72130,"internal_node_id":"0.0-3.0-2.0-1.32","participant_id":"9ujp95f4ye","prestimulus_duration":894,"correct":true,"type":"Delboeuf","illusion_strength":0,"illusion_difference":-0.8066451612903226,"block_number":1,"trial_number":33},{"rt":null,"stimulus":"<div style=\"font-size:60px;\">+</div>","response":null,"screen":"fixation","trial_type":"html-keyboard-response","trial_index":71,"time_elapsed":72860,"internal_node_id":"0.0-3.0-2.0-0.33","participant_id":"9ujp95f4ye","trial_duration":715},{"rt":364,"stimulus":"stimuli/Delboeuf_str0_diff0.516613.png","response":"arrowleft","screen":"Trial","block":"Delboeuf","correct_response":"arrowleft","trial_type":"image-keyboard-response","trial_index":72,"time_elapsed":73225,"internal_node_id":"0.0-3.0-2.0-1.33","participant_id":"9ujp95f4ye","prestimulus_duration":730,"correct":true,"type":"Delboeuf","illusion_strength":0,"illusion_difference":0.5166129032258064,"block_number":1,"trial_number":34},{"rt":null,"stimulus":"<div style=\"font-size:60px;\">+</div>","response":null,"screen":"fixation","trial_type":"html-keyboard-response","trial_index":73,"time_elapsed":74104,"internal_node_id":"0.0-3.0-2.0-0.34","participant_id":"9ujp95f4ye","trial_duration":862},{"rt":384,"stimulus":"stimuli/Delboeuf_str0_diff-0.548839.png","response":"arrowright","screen":"Trial","block":"Delboeuf","correct_response":"arrowright","trial_type":"image-keyboard-response","trial_index":74,"time_elapsed":74490,"internal_node_id":"0.0-3.0-2.0-1.34","participant_id":"9ujp95f4ye","prestimulus_duration":879,"correct":true,"type":"Delboeuf","illusion_strength":0,"illusion_difference":-0.5488387096774193,"block_number":1,"trial_number":35},{"rt":null,"stimulus":"<div style=\"font-size:60px;\">+</div>","response":null,"screen":"fixation","trial_type":"html-keyboard-response","trial_index":75,"time_elapsed":75308,"internal_node_id":"0.0-3.0-2.0-0.35","participant_id":"9ujp95f4ye","trial_duration":810},{"rt":384,"stimulus":"stimuli/Delboeuf_str0_diff0.452161.png","response":"arrowleft","screen":"Trial","block":"Delboeuf","correct_response":"arrowleft","trial_type":"image-keyboard-response","trial_index":76,"time_elapsed":75696,"internal_node_id":"0.0-3.0-2.0-1.35","participant_id":"9ujp95f4ye","prestimulus_duration":818,"correct":true,"type":"Delboeuf","illusion_strength":0,"illusion_difference":0.4521612903225806,"block_number":1,"trial_number":36},{"rt":null,"stimulus":"<div style=\"font-size:60px;\">+</div>","response":null,"screen":"fixation","trial_type":"html-keyboard-response","trial_index":77,"time_elapsed":76305,"internal_node_id":"0.0-3.0-2.0-0.36","participant_id":"9ujp95f4ye","trial_duration":595},{"rt":405,"stimulus":"stimuli/Delboeuf_str0_diff-0.194355.png","response":"arrowright","screen":"Trial","block":"Delboeuf","correct_response":"arrowright","trial_type":"image-keyboard-response","trial_index":78,"time_elapsed":76711,"internal_node_id":"0.0-3.0-2.0-1.36","participant_id":"9ujp95f4ye","prestimulus_duration":609,"correct":true,"type":"Delboeuf","illusion_strength":0,"illusion_difference":-0.1943548387096774,"block_number":1,"trial_number":37},{"rt":null,"stimulus":"<div style=\"font-size:60px;\">+</div>","response":null,"screen":"fixation","trial_type":"html-keyboard-response","trial_index":79,"time_elapsed":77395,"internal_node_id":"0.0-3.0-2.0-0.37","participant_id":"9ujp95f4ye","trial_duration":669},{"rt":376,"stimulus":"stimuli/Delboeuf_str0_diff0.61329.png","response":"arrowleft","screen":"Trial","block":"Delboeuf","correct_response":"arrowleft","trial_type":"image-keyboard-response","trial_index":80,"time_elapsed":77775,"internal_node_id":"0.0-3.0-2.0-1.37","participant_id":"9ujp95f4ye","prestimulus_duration":684,"correct":true,"type":"Delboeuf","illusion_strength":0,"illusion_difference":0.6132903225806452,"block_number":1,"trial_number":38},{"rt":null,"stimulus":"<div style=\"font-size:60px;\">+</div>","response":null,"screen":"fixation","trial_type":"html-keyboard-response","trial_index":81,"time_elapsed":78648,"internal_node_id":"0.0-3.0-2.0-0.38","participant_id":"9ujp95f4ye","trial_duration":865},{"rt":349,"stimulus":"stimuli/Delboeuf_str0_diff0.581065.png","response":"arrowleft","screen":"Trial","block":"Delboeuf","correct_response":"arrowleft","trial_type":"image-keyboard-response","trial_index":82,"time_elapsed":79001,"internal_node_id":"0.0-3.0-2.0-1.38","participant_id":"9ujp95f4ye","prestimulus_duration":873,"correct":true,"type":"Delboeuf","illusion_strength":0,"illusion_difference":0.5810645161290322,"block_number":1,"trial_number":39},{"rt":null,"stimulus":"<div style=\"font-size:60px;\">+</div>","response":null,"screen":"fixation","trial_type":"html-keyboard-response","trial_index":83,"time_elapsed":79569,"internal_node_id":"0.0-3.0-2.0-0.39","participant_id":"9ujp95f4ye","trial_duration":565},{"rt":436,"stimulus":"stimuli/Delboeuf_str0_diff0.001.png","response":"arrowright","screen":"Trial","block":"Delboeuf","correct_response":"arrowleft","trial_type":"image-keyboard-response","trial_index":84,"time_elapsed":80006,"internal_node_id":"0.0-3.0-2.0-1.39","participant_id":"9ujp95f4ye","prestimulus_duration":568,"correct":false,"type":"Delboeuf","illusion_strength":0,"illusion_difference":0.001,"block_number":1,"trial_number":40},{"rt":null,"stimulus":"<div style=\"font-size:60px;\">+</div>","response":null,"screen":"fixation","trial_type":"html-keyboard-response","trial_index":85,"time_elapsed":80759,"internal_node_id":"0.0-3.0-2.0-0.40","participant_id":"9ujp95f4ye","trial_duration":742},{"rt":398,"stimulus":"stimuli/Delboeuf_str0_diff-0.903323.png","response":"arrowright","screen":"Trial","block":"Delboeuf","correct_response":"arrowright","trial_type":"image-keyboard-response","trial_index":86,"time_elapsed":81158,"internal_node_id":"0.0-3.0-2.0-1.40","participant_id":"9ujp95f4ye","prestimulus_duration":753,"correct":true,"type":"Delboeuf","illusion_strength":0,"illusion_difference":-0.9033225806451612,"block_number":1,"trial_number":41},{"rt":null,"stimulus":"<div style=\"font-size:60px;\">+</div>","response":null,"screen":"fixation","trial_type":"html-keyboard-response","trial_index":87,"time_elapsed":81911,"internal_node_id":"0.0-3.0-2.0-0.41","participant_id":"9ujp95f4ye","trial_duration":751},{"rt":511,"stimulus":"stimuli/Delboeuf_str0_diff-0.226581.png","response":"arrowright","screen":"Trial","block":"Delboeuf","correct_response":"arrowright","trial_type":"image-keyboard-response","trial_index":88,"time_elapsed":82423,"internal_node_id":"0.0-3.0-2.0-1.41","participant_id":"9ujp95f4ye","prestimulus_duration":753,"correct":true,"type":"Delboeuf","illusion_strength":0,"illusion_difference":-0.2265806451612903,"block_number":1,"trial_number":42},{"rt":null,"stimulus":"<div style=\"font-size:60px;\">+</div>","response":null,"screen":"fixation","trial_type":"html-keyboard-response","trial_index":89,"time_elapsed":83211,"internal_node_id":"0.0-3.0-2.0-0.42","participant_id":"9ujp95f4ye","trial_duration":776},{"rt":387,"stimulus":"stimuli/Delboeuf_str0_diff0.935548.png","response":"arrowleft","screen":"Trial","block":"Delboeuf","correct_response":"arrowleft","trial_type":"image-keyboard-response","trial_index":90,"time_elapsed":83599,"internal_node_id":"0.0-3.0-2.0-1.42","participant_id":"9ujp95f4ye","prestimulus_duration":788,"correct":true,"type":"Delboeuf","illusion_strength":0,"illusion_difference":0.9355483870967741,"block_number":1,"trial_number":43},{"rt":null,"stimulus":"<div style=\"font-size:60px;\">+</div>","response":null,"screen":"fixation","trial_type":"html-keyboard-response","trial_index":91,"time_elapsed":84432,"internal_node_id":"0.0-3.0-2.0-0.43","participant_id":"9ujp95f4ye","trial_duration":830},{"rt":389,"stimulus":"stimuli/Delboeuf_str0_diff-0.001.png","response":"arrowright","screen":"Trial","block":"Delboeuf","correct_response":"arrowright","trial_type":"image-keyboard-response","trial_index":92,"time_elapsed":84822,"internal_node_id":"0.0-3.0-2.0-1.43","participant_id":"9ujp95f4ye","prestimulus_duration":833,"correct":true,"type":"Delboeuf","illusion_strength":0,"illusion_difference":-0.001,"block_number":1,"trial_number":44},{"rt":null,"stimulus":"<div style=\"font-size:60px;\">+</div>","response":null,"screen":"fixation","trial_type":"html-keyboard-response","trial_index":93,"time_elapsed":85744,"internal_node_id":"0.0-3.0-2.0-0.44","participant_id":"9ujp95f4ye","trial_duration":915},{"rt":389,"stimulus":"stimuli/Delboeuf_str0_diff0.838871.png","response":"arrowleft","screen":"Trial","block":"Delboeuf","correct_response":"arrowleft","trial_type":"image-keyboard-response","trial_index":94,"time_elapsed":86134,"internal_node_id":"0.0-3.0-2.0-1.44","participant_id":"9ujp95f4ye","prestimulus_duration":922,"correct":true,"type":"Delboeuf","illusion_strength":0,"illusion_difference":0.8388709677419355,"block_number":1,"trial_number":45},{"rt":null,"stimulus":"<div style=\"font-size:60px;\">+</div>","response":null,"screen":"fixation","trial_type":"html-keyboard-response","trial_index":95,"time_elapsed":86668,"internal_node_id":"0.0-3.0-2.0-0.45","participant_id":"9ujp95f4ye","trial_duration":518},{"rt":417,"stimulus":"stimuli/Delboeuf_str0_diff0.742194.png","response":"arrowleft","screen":"Trial","block":"Delboeuf","correct_response":"arrowleft","trial_type":"image-keyboard-response","trial_index":96,"time_elapsed":87087,"internal_node_id":"0.0-3.0-2.0-1.45","participant_id":"9ujp95f4ye","prestimulus_duration":534,"correct":true,"type":"Delboeuf","illusion_strength":0,"illusion_difference":0.7421935483870967,"block_number":1,"trial_number":46},{"rt":null,"stimulus":"<div style=\"font-size:60px;\">+</div>","response":null,"screen":"fixation","trial_type":"html-keyboard-response","trial_index":97,"time_elapsed":87605,"internal_node_id":"0.0-3.0-2.0-0.46","participant_id":"9ujp95f4ye","trial_duration":511},{"rt":468,"stimulus":"stimuli/Delboeuf_str0_diff-0.452161.png","response":"arrowright","screen":"Trial","block":"Delboeuf","correct_response":"arrowright","trial_type":"image-keyboard-response","trial_index":98,"time_elapsed":88073,"internal_node_id":"0.0-3.0-2.0-1.46","participant_id":"9ujp95f4ye","prestimulus_duration":518,"correct":true,"type":"Delboeuf","illusion_strength":0,"illusion_difference":-0.4521612903225806,"block_number":1,"trial_number":47},{"rt":null,"stimulus":"<div style=\"font-size:60px;\">+</div>","response":null,"screen":"fixation","trial_type":"html-keyboard-response","trial_index":99,"time_elapsed":88698,"internal_node_id":"0.0-3.0-2.0-0.47","participant_id":"9ujp95f4ye","trial_duration":618},{"rt":384,"stimulus":"stimuli/Delboeuf_str0_diff-0.61329.png","response":"arrowright","screen":"Trial","block":"Delboeuf","correct_response":"arrowright","trial_type":"image-keyboard-response","trial_index":100,"time_elapsed":89083,"internal_node_id":"0.0-3.0-2.0-1.47","participant_id":"9ujp95f4ye","prestimulus_duration":625,"correct":true,"type":"Delboeuf","illusion_strength":0,"illusion_difference":-0.6132903225806452,"block_number":1,"trial_number":48},{"rt":null,"stimulus":"<div style=\"font-size:60px;\">+</div>","response":null,"screen":"fixation","trial_type":"html-keyboard-response","trial_index":101,"time_elapsed":89633,"internal_node_id":"0.0-3.0-2.0-0.48","participant_id":"9ujp95f4ye","trial_duration":537},{"rt":497,"stimulus":"stimuli/Delboeuf_str0_diff-0.355484.png","response":"arrowright","screen":"Trial","block":"Delboeuf","correct_response":"arrowright","trial_type":"image-keyboard-response","trial_index":102,"time_elapsed":90134,"internal_node_id":"0.0-3.0-2.0-1.48","participant_id":"9ujp95f4ye","prestimulus_duration":550,"correct":true,"type":"Delboeuf","illusion_strength":0,"illusion_difference":-0.3554838709677419,"block_number":1,"trial_number":49},{"rt":null,"stimulus":"<div style=\"font-size:60px;\">+</div>","response":null,"screen":"fixation","trial_type":"html-keyboard-response","trial_index":103,"time_elapsed":90946,"internal_node_id":"0.0-3.0-2.0-0.49","participant_id":"9ujp95f4ye","trial_duration":805},{"rt":403,"stimulus":"stimuli/Delboeuf_str0_diff0.323258.png","response":"arrowleft","screen":"Trial","block":"Delboeuf","correct_response":"arrowleft","trial_type":"image-keyboard-response","trial_index":104,"time_elapsed":91353,"internal_node_id":"0.0-3.0-2.0-1.49","participant_id":"9ujp95f4ye","prestimulus_duration":812,"correct":true,"type":"Delboeuf","illusion_strength":0,"illusion_difference":0.32325806451612904,"block_number":1,"trial_number":50},{"rt":null,"stimulus":"<div style=\"font-size:60px;\">+</div>","response":null,"screen":"fixation","trial_type":"html-keyboard-response","trial_index":105,"time_elapsed":92291,"internal_node_id":"0.0-3.0-2.0-0.50","participant_id":"9ujp95f4ye","trial_duration":929},{"rt":474,"stimulus":"stimuli/Delboeuf_str0_diff0.097677.png","response":"arrowleft","screen":"Trial","block":"Delboeuf","correct_response":"arrowleft","trial_type":"image-keyboard-response","trial_index":106,"time_elapsed":92769,"internal_node_id":"0.0-3.0-2.0-1.50","participant_id":"9ujp95f4ye","prestimulus_duration":938,"correct":true,"type":"Delboeuf","illusion_strength":0,"illusion_difference":0.0976774193548387,"block_number":1,"trial_number":51},{"rt":null,"stimulus":"<div style=\"font-size:60px;\">+</div>","response":null,"screen":"fixation","trial_type":"html-keyboard-response","trial_index":107,"time_elapsed":93461,"internal_node_id":"0.0-3.0-2.0-0.51","participant_id":"9ujp95f4ye","trial_duration":678},{"rt":393,"stimulus":"stimuli/Delboeuf_str0_diff-0.935548.png","response":"arrowright","screen":"Trial","block":"Delboeuf","correct_response":"arrowright","trial_type":"image-keyboard-response","trial_index":108,"time_elapsed":93858,"internal_node_id":"0.0-3.0-2.0-1.51","participant_id":"9ujp95f4ye","prestimulus_duration":692,"correct":true,"type":"Delboeuf","illusion_strength":0,"illusion_difference":-0.9355483870967741,"block_number":1,"trial_number":52},{"rt":null,"stimulus":"<div style=\"font-size:60px;\">+</div>","response":null,"screen":"fixation","trial_type":"html-keyboard-response","trial_index":109,"time_elapsed":94785,"internal_node_id":"0.0-3.0-2.0-0.52","participant_id":"9ujp95f4ye","trial_duration":917},{"rt":404,"stimulus":"stimuli/Delboeuf_str0_diff1.0.png","response":"arrowleft","screen":"Trial","block":"Delboeuf","correct_response":"arrowleft","trial_type":"image-keyboard-response","trial_index":110,"time_elapsed":95194,"internal_node_id":"0.0-3.0-2.0-1.52","participant_id":"9ujp95f4ye","prestimulus_duration":927,"correct":true,"type":"Delboeuf","illusion_strength":0,"illusion_difference":1,"block_number":1,"trial_number":53},{"rt":null,"stimulus":"<div style=\"font-size:60px;\">+</div>","response":null,"screen":"fixation","trial_type":"html-keyboard-response","trial_index":111,"time_elapsed":96045,"internal_node_id":"0.0-3.0-2.0-0.53","participant_id":"9ujp95f4ye","trial_duration":834},{"rt":386,"stimulus":"stimuli/Delboeuf_str0_diff-0.484387.png","response":"arrowright","screen":"Trial","block":"Delboeuf","correct_response":"arrowright","trial_type":"image-keyboard-response","trial_index":112,"time_elapsed":96434,"internal_node_id":"0.0-3.0-2.0-1.53","participant_id":"9ujp95f4ye","prestimulus_duration":851,"correct":true,"type":"Delboeuf","illusion_strength":0,"illusion_difference":-0.48438709677419356,"block_number":1,"trial_number":54},{"rt":null,"stimulus":"<div style=\"font-size:60px;\">+</div>","response":null,"screen":"fixation","trial_type":"html-keyboard-response","trial_index":113,"time_elapsed":97343,"internal_node_id":"0.0-3.0-2.0-0.54","participant_id":"9ujp95f4ye","trial_duration":897},{"rt":406,"stimulus":"stimuli/Delboeuf_str0_diff-0.033226.png","response":"arrowright","screen":"Trial","block":"Delboeuf","correct_response":"arrowright","trial_type":"image-keyboard-response","trial_index":114,"time_elapsed":97754,"internal_node_id":"0.0-3.0-2.0-1.54","participant_id":"9ujp95f4ye","prestimulus_duration":909,"correct":true,"type":"Delboeuf","illusion_strength":0,"illusion_difference":-0.0332258064516129,"block_number":1,"trial_number":55},{"rt":null,"stimulus":"<div style=\"font-size:60px;\">+</div>","response":null,"screen":"fixation","trial_type":"html-keyboard-response","trial_index":115,"time_elapsed":98417,"internal_node_id":"0.0-3.0-2.0-0.55","participant_id":"9ujp95f4ye","trial_duration":652},{"rt":389,"stimulus":"stimuli/Delboeuf_str0_diff0.806645.png","response":"arrowleft","screen":"Trial","block":"Delboeuf","correct_response":"arrowleft","trial_type":"image-keyboard-response","trial_index":116,"time_elapsed":98809,"internal_node_id":"0.0-3.0-2.0-1.55","participant_id":"9ujp95f4ye","prestimulus_duration":663,"correct":true,"type":"Delboeuf","illusion_strength":0,"illusion_difference":0.8066451612903226,"block_number":1,"trial_number":56},{"rt":null,"stimulus":"<div style=\"font-size:60px;\">+</div>","response":null,"screen":"fixation","trial_type":"html-keyboard-response","trial_index":117,"time_elapsed":99734,"internal_node_id":"0.0-3.0-2.0-0.56","participant_id":"9ujp95f4ye","trial_duration":907},{"rt":414,"stimulus":"stimuli/Delboeuf_str0_diff0.903323.png","response":"arrowleft","screen":"Trial","block":"Delboeuf","correct_response":"arrowleft","trial_type":"image-keyboard-response","trial_index":118,"time_elapsed":100151,"internal_node_id":"0.0-3.0-2.0-1.56","participant_id":"9ujp95f4ye","prestimulus_duration":925,"correct":true,"type":"Delboeuf","illusion_strength":0,"illusion_difference":0.9033225806451612,"block_number":1,"trial_number":57},{"rt":null,"stimulus":"<div style=\"font-size:60px;\">+</div>","response":null,"screen":"fixation","trial_type":"html-keyboard-response","trial_index":119,"time_elapsed":100689,"internal_node_id":"0.0-3.0-2.0-0.57","participant_id":"9ujp95f4ye","trial_duration":525},{"rt":427,"stimulus":"stimuli/Delboeuf_str0_diff-0.097677.png","response":"arrowright","screen":"Trial","block":"Delboeuf","correct_response":"arrowright","trial_type":"image-keyboard-response","trial_index":120,"time_elapsed":101120,"internal_node_id":"0.0-3.0-2.0-1.57","participant_id":"9ujp95f4ye","prestimulus_duration":538,"correct":true,"type":"Delboeuf","illusion_strength":0,"illusion_difference":-0.0976774193548387,"block_number":1,"trial_number":58},{"rt":null,"stimulus":"<div style=\"font-size:60px;\">+</div>","response":null,"screen":"fixation","trial_type":"html-keyboard-response","trial_index":121,"time_elapsed":101719,"internal_node_id":"0.0-3.0-2.0-0.58","participant_id":"9ujp95f4ye","trial_duration":592},{"rt":421,"stimulus":"stimuli/Delboeuf_str0_diff0.355484.png","response":"arrowleft","screen":"Trial","block":"Delboeuf","correct_response":"arrowleft","trial_type":"image-keyboard-response","trial_index":122,"time_elapsed":102143,"internal_node_id":"0.0-3.0-2.0-1.58","participant_id":"9ujp95f4ye","prestimulus_duration":599,"correct":true,"type":"Delboeuf","illusion_strength":0,"illusion_difference":0.3554838709677419,"block_number":1,"trial_number":59},{"rt":null,"stimulus":"<div style=\"font-size:60px;\">+</div>","response":null,"screen":"fixation","trial_type":"html-keyboard-response","trial_index":123,"time_elapsed":102947,"internal_node_id":"0.0-3.0-2.0-0.59","participant_id":"9ujp95f4ye","trial_duration":801},{"rt":394,"stimulus":"stimuli/Delboeuf_str0_diff-0.323258.png","response":"arrowright","screen":"Trial","block":"Delboeuf","correct_response":"arrowright","trial_type":"image-keyboard-response","trial_index":124,"time_elapsed":103343,"internal_node_id":"0.0-3.0-2.0-1.59","participant_id":"9ujp95f4ye","prestimulus_duration":804,"correct":true,"type":"Delboeuf","illusion_strength":0,"illusion_difference":-0.32325806451612904,"block_number":1,"trial_number":60},{"rt":null,"stimulus":"<div style=\"font-size:60px;\">+</div>","response":null,"screen":"fixation","trial_type":"html-keyboard-response","trial_index":125,"time_elapsed":104074,"internal_node_id":"0.0-3.0-2.0-0.60","participant_id":"9ujp95f4ye","trial_duration":730},{"rt":461,"stimulus":"stimuli/Delboeuf_str0_diff0.162129.png","response":"arrowleft","screen":"Trial","block":"Delboeuf","correct_response":"arrowleft","trial_type":"image-keyboard-response","trial_index":126,"time_elapsed":104539,"internal_node_id":"0.0-3.0-2.0-1.60","participant_id":"9ujp95f4ye","prestimulus_duration":731,"correct":true,"type":"Delboeuf","illusion_strength":0,"illusion_difference":0.16212903225806452,"block_number":1,"trial_number":61},{"rt":null,"stimulus":"<div style=\"font-size:60px;\">+</div>","response":null,"screen":"fixation","trial_type":"html-keyboard-response","trial_index":127,"time_elapsed":105289,"internal_node_id":"0.0-3.0-2.0-0.61","participant_id":"9ujp95f4ye","trial_duration":740},{"rt":365,"stimulus":"stimuli/Delboeuf_str0_diff-0.581065.png","response":"arrowright","screen":"Trial","block":"Delboeuf","correct_response":"arrowright","trial_type":"image-keyboard-response","trial_index":128,"time_elapsed":105656,"internal_node_id":"0.0-3.0-2.0-1.61","participant_id":"9ujp95f4ye","prestimulus_duration":750,"correct":true,"type":"Delboeuf","illusion_strength":0,"illusion_difference":-0.5810645161290322,"block_number":1,"trial_number":62},{"rt":null,"stimulus":"<div style=\"font-size:60px;\">+</div>","response":null,"screen":"fixation","trial_type":"html-keyboard-response","trial_index":129,"time_elapsed":106301,"internal_node_id":"0.0-3.0-2.0-0.62","participant_id":"9ujp95f4ye","trial_duration":640},{"rt":519,"stimulus":"stimuli/Delboeuf_str0_diff-0.258806.png","response":"arrowright","screen":"Trial","block":"Delboeuf","correct_response":"arrowright","trial_type":"image-keyboard-response","trial_index":130,"time_elapsed":106823,"internal_node_id":"0.0-3.0-2.0-1.62","participant_id":"9ujp95f4ye","prestimulus_duration":645,"correct":true,"type":"Delboeuf","illusion_strength":0,"illusion_difference":-0.2588064516129032,"block_number":1,"trial_number":63},{"rt":null,"stimulus":"<div style=\"font-size:60px;\">+</div>","response":null,"screen":"fixation","trial_type":"html-keyboard-response","trial_index":131,"time_elapsed":107677,"internal_node_id":"0.0-3.0-2.0-0.63","participant_id":"9ujp95f4ye","trial_duration":851},{"rt":449,"stimulus":"stimuli/Delboeuf_str0_diff0.194355.png","response":"arrowleft","screen":"Trial","block":"Delboeuf","correct_response":"arrowleft","trial_type":"image-keyboard-response","trial_index":132,"time_elapsed":108129,"internal_node_id":"0.0-3.0-2.0-1.63","participant_id":"9ujp95f4ye","prestimulus_duration":854,"correct":true,"type":"Delboeuf","illusion_strength":0,"illusion_difference":0.1943548387096774,"block_number":1,"trial_number":64},{"rt":5705,"stimulus":"<p>Your score for this illusion is <p style=\"color: black; font-size: 48px; font-weight: bold;\">91</p><hr><p>Can you do better in the next block?</p>","response":0,"screen":"block_results","trial_type":"html-button-response","trial_index":133,"time_elapsed":113849,"internal_node_id":"0.0-3.0-3.0","participant_id":"9ujp95f4ye"},{"success":true,"timeout":false,"failed_images":[],"failed_audio":[],"failed_video":[],"trial_type":"preload","trial_index":134,"time_elapsed":115107,"internal_node_id":"0.0-4.0-0.0","participant_id":"9ujp95f4ye"},{"rt":6491,"stimulus":"<p><b>Part 2</b></p><p>In this part, two horizontal red lines will appear one above the other.</p><p>Your task is to select which <b>line is longer</b> in length as fast as you can, without making errors.</p><p>Press <b>the UP or the DOWN arrow</b> to indicate where is the longer <b>red line.</b></p><div style='float: center'><img src='utils/stimuli_demo/MullerLyer_Demo.png' height='300'></img><p><img src='utils/answer/answer_updown_keyboard.PNG' height='150'></img></p><p class='small'>In this example, the correct answer is the <b>UP arrow</b>.</p></div><p>Are you ready? <b>Press ENTER to start</b></p>","response":"enter","trial_type":"html-keyboard-response","trial_index":135,"time_elapsed":121599,"internal_node_id":"0.0-4.0-1.0","participant_id":"9ujp95f4ye"},{"rt":null,"stimulus":"<div style=\"font-size:60px;\">+</div>","response":null,"screen":"fixation","trial_type":"html-keyboard-response","trial_index":136,"time_elapsed":122721,"internal_node_id":"0.0-4.0-2.0-0.0","participant_id":"9ujp95f4ye","trial_duration":599},{"rt":452,"stimulus":"stimuli/MullerLyer_str0_diff-0.46.png","response":"arrowdown","screen":"Trial","block":"MullerLyer","correct_response":"arrowdown","trial_type":"image-keyboard-response","trial_index":137,"time_elapsed":123174,"internal_node_id":"0.0-4.0-2.0-1.0","participant_id":"9ujp95f4ye","prestimulus_duration":1122,"correct":true,"type":"MullerLyer","illusion_strength":0,"illusion_difference":-0.46,"block_number":2,"trial_number":1},{"rt":null,"stimulus":"<div style=\"font-size:60px;\">+</div>","response":null,"screen":"fixation","trial_type":"html-keyboard-response","trial_index":138,"time_elapsed":123986,"internal_node_id":"0.0-4.0-2.0-0.1","participant_id":"9ujp95f4ye","trial_duration":804},{"rt":432,"stimulus":"stimuli/MullerLyer_str0_diff0.400774.png","response":"arrowup","screen":"Trial","block":"MullerLyer","correct_response":"arrowup","trial_type":"image-keyboard-response","trial_index":139,"time_elapsed":124422,"internal_node_id":"0.0-4.0-2.0-1.1","participant_id":"9ujp95f4ye","prestimulus_duration":812,"correct":true,"type":"MullerLyer","illusion_strength":0,"illusion_difference":0.4007741935483871,"block_number":2,"trial_number":2},{"rt":null,"stimulus":"<div style=\"font-size:60px;\">+</div>","response":null,"screen":"fixation","trial_type":"html-keyboard-response","trial_index":140,"time_elapsed":125251,"internal_node_id":"0.0-4.0-2.0-0.2","participant_id":"9ujp95f4ye","trial_duration":813},{"rt":451,"stimulus":"stimuli/MullerLyer_str0_diff0.371161.png","response":"arrowup","screen":"Trial","block":"MullerLyer","correct_response":"arrowup","trial_type":"image-keyboard-response","trial_index":141,"time_elapsed":125705,"internal_node_id":"0.0-4.0-2.0-1.2","participant_id":"9ujp95f4ye","prestimulus_duration":829,"correct":true,"type":"MullerLyer","illusion_strength":0,"illusion_difference":0.37116129032258066,"block_number":2,"trial_number":3},{"rt":null,"stimulus":"<div style=\"font-size:60px;\">+</div>","response":null,"screen":"fixation","trial_type":"html-keyboard-response","trial_index":142,"time_elapsed":126374,"internal_node_id":"0.0-4.0-2.0-0.3","participant_id":"9ujp95f4ye","trial_duration":656},{"rt":490,"stimulus":"stimuli/MullerLyer_str0_diff-0.001.png","response":"arrowdown","screen":"Trial","block":"MullerLyer","correct_response":"arrowdown","trial_type":"image-keyboard-response","trial_index":143,"time_elapsed":126865,"internal_node_id":"0.0-4.0-2.0-1.3","participant_id":"9ujp95f4ye","prestimulus_duration":669,"correct":true,"type":"MullerLyer","illusion_strength":0,"illusion_difference":-0.001,"block_number":2,"trial_number":4},{"rt":null,"stimulus":"<div style=\"font-size:60px;\">+</div>","response":null,"screen":"fixation","trial_type":"html-keyboard-response","trial_index":144,"time_elapsed":127681,"internal_node_id":"0.0-4.0-2.0-0.4","participant_id":"9ujp95f4ye","trial_duration":811},{"rt":709,"stimulus":"stimuli/MullerLyer_str0_diff0.030613.png","response":"arrowup","screen":"Trial","block":"MullerLyer","correct_response":"arrowup","trial_type":"image-keyboard-response","trial_index":145,"time_elapsed":128391,"internal_node_id":"0.0-4.0-2.0-1.4","participant_id":"9ujp95f4ye","prestimulus_duration":816,"correct":true,"type":"MullerLyer","illusion_strength":0,"illusion_difference":0.030612903225806454,"block_number":2,"trial_number":5},{"rt":null,"stimulus":"<div style=\"font-size:60px;\">+</div>","response":null,"screen":"fixation","trial_type":"html-keyboard-response","trial_index":146,"time_elapsed":129290,"internal_node_id":"0.0-4.0-2.0-0.5","participant_id":"9ujp95f4ye","trial_duration":896},{"rt":516,"stimulus":"stimuli/MullerLyer_str0_diff-0.20829.png","response":"arrowdown","screen":"Trial","block":"MullerLyer","correct_response":"arrowdown","trial_type":"image-keyboard-response","trial_index":147,"time_elapsed":129807,"internal_node_id":"0.0-4.0-2.0-1.5","participant_id":"9ujp95f4ye","prestimulus_duration":899,"correct":true,"type":"MullerLyer","illusion_strength":0,"illusion_difference":-0.20829032258064517,"block_number":2,"trial_number":6},{"rt":null,"stimulus":"<div style=\"font-size:60px;\">+</div>","response":null,"screen":"fixation","trial_type":"html-keyboard-response","trial_index":148,"time_elapsed":130652,"internal_node_id":"0.0-4.0-2.0-0.6","participant_id":"9ujp95f4ye","trial_duration":843},{"rt":479,"stimulus":"stimuli/MullerLyer_str0_diff0.46.png","response":"arrowup","screen":"Trial","block":"MullerLyer","correct_response":"arrowup","trial_type":"image-keyboard-response","trial_index":149,"time_elapsed":131135,"internal_node_id":"0.0-4.0-2.0-1.6","participant_id":"9ujp95f4ye","prestimulus_duration":845,"correct":true,"type":"MullerLyer","illusion_strength":0,"illusion_difference":0.46,"block_number":2,"trial_number":7},{"rt":null,"stimulus":"<div style=\"font-size:60px;\">+</div>","response":null,"screen":"fixation","trial_type":"html-keyboard-response","trial_index":150,"time_elapsed":131834,"internal_node_id":"0.0-4.0-2.0-0.7","participant_id":"9ujp95f4ye","trial_duration":692},{"rt":546,"stimulus":"stimuli/MullerLyer_str0_diff0.356355.png","response":"arrowup","screen":"Trial","block":"MullerLyer","correct_response":"arrowup","trial_type":"image-keyboard-response","trial_index":151,"time_elapsed":132386,"internal_node_id":"0.0-4.0-2.0-1.7","participant_id":"9ujp95f4ye","prestimulus_duration":699,"correct":true,"type":"MullerLyer","illusion_strength":0,"illusion_difference":0.35635483870967744,"block_number":2,"trial_number":8},{"rt":null,"stimulus":"<div style=\"font-size:60px;\">+</div>","response":null,"screen":"fixation","trial_type":"html-keyboard-response","trial_index":152,"time_elapsed":132938,"internal_node_id":"0.0-4.0-2.0-0.8","participant_id":"9ujp95f4ye","trial_duration":544},{"rt":499,"stimulus":"stimuli/MullerLyer_str0_diff0.001.png","response":"arrowdown","screen":"Trial","block":"MullerLyer","correct_response":"arrowup","trial_type":"image-keyboard-response","trial_index":153,"time_elapsed":133441,"internal_node_id":"0.0-4.0-2.0-1.8","participant_id":"9ujp95f4ye","prestimulus_duration":552,"correct":false,"type":"MullerLyer","illusion_strength":0,"illusion_difference":0.001,"block_number":2,"trial_number":9},{"rt":null,"stimulus":"<div style=\"font-size:60px;\">+</div>","response":null,"screen":"fixation","trial_type":"html-keyboard-response","trial_index":154,"time_elapsed":134027,"internal_node_id":"0.0-4.0-2.0-0.9","participant_id":"9ujp95f4ye","trial_duration":572},{"rt":536,"stimulus":"stimuli/MullerLyer_str0_diff-0.104645.png","response":"arrowdown","screen":"Trial","block":"MullerLyer","correct_response":"arrowdown","trial_type":"image-keyboard-response","trial_index":155,"time_elapsed":134567,"internal_node_id":"0.0-4.0-2.0-1.9","participant_id":"9ujp95f4ye","prestimulus_duration":586,"correct":true,"type":"MullerLyer","illusion_strength":0,"illusion_difference":-0.10464516129032259,"block_number":2,"trial_number":10},{"rt":null,"stimulus":"<div style=\"font-size:60px;\">+</div>","response":null,"screen":"fixation","trial_type":"html-keyboard-response","trial_index":156,"time_elapsed":135166,"internal_node_id":"0.0-4.0-2.0-0.10","participant_id":"9ujp95f4ye","trial_duration":596},{"rt":451,"stimulus":"stimuli/MullerLyer_str0_diff0.311935.png","response":"arrowup","screen":"Trial","block":"MullerLyer","correct_response":"arrowup","trial_type":"image-keyboard-response","trial_index":157,"time_elapsed":135618,"internal_node_id":"0.0-4.0-2.0-1.10","participant_id":"9ujp95f4ye","prestimulus_duration":599,"correct":true,"type":"MullerLyer","illusion_strength":0,"illusion_difference":0.31193548387096776,"block_number":2,"trial_number":11},{"rt":null,"stimulus":"<div style=\"font-size:60px;\">+</div>","response":null,"screen":"fixation","trial_type":"html-keyboard-response","trial_index":158,"time_elapsed":136259,"internal_node_id":"0.0-4.0-2.0-0.11","participant_id":"9ujp95f4ye","trial_duration":630},{"rt":533,"stimulus":"stimuli/MullerLyer_str0_diff0.015806.png","response":"arrowdown","screen":"Trial","block":"MullerLyer","correct_response":"arrowup","trial_type":"image-keyboard-response","trial_index":159,"time_elapsed":136794,"internal_node_id":"0.0-4.0-2.0-1.11","participant_id":"9ujp95f4ye","prestimulus_duration":641,"correct":false,"type":"MullerLyer","illusion_strength":0,"illusion_difference":0.015806451612903227,"block_number":2,"trial_number":12},{"rt":null,"stimulus":"<div style=\"font-size:60px;\">+</div>","response":null,"screen":"fixation","trial_type":"html-keyboard-response","trial_index":160,"time_elapsed":137461,"internal_node_id":"0.0-4.0-2.0-0.12","participant_id":"9ujp95f4ye","trial_duration":653},{"rt":467,"stimulus":"stimuli/MullerLyer_str0_diff0.415581.png","response":"arrowup","screen":"Trial","block":"MullerLyer","correct_response":"arrowup","trial_type":"image-keyboard-response","trial_index":161,"time_elapsed":137930,"internal_node_id":"0.0-4.0-2.0-1.12","participant_id":"9ujp95f4ye","prestimulus_duration":667,"correct":true,"type":"MullerLyer","illusion_strength":0,"illusion_difference":0.41558064516129034,"block_number":2,"trial_number":13},{"rt":null,"stimulus":"<div style=\"font-size:60px;\">+</div>","response":null,"screen":"fixation","trial_type":"html-keyboard-response","trial_index":162,"time_elapsed":138758,"internal_node_id":"0.0-4.0-2.0-0.13","participant_id":"9ujp95f4ye","trial_duration":816},{"rt":495,"stimulus":"stimuli/MullerLyer_str0_diff0.25271.png","response":"arrowup","screen":"Trial","block":"MullerLyer","correct_response":"arrowup","trial_type":"image-keyboard-response","trial_index":163,"time_elapsed":139257,"internal_node_id":"0.0-4.0-2.0-1.13","participant_id":"9ujp95f4ye","prestimulus_duration":828,"correct":true,"type":"MullerLyer","illusion_strength":0,"illusion_difference":0.25270967741935485,"block_number":2,"trial_number":14},{"rt":null,"stimulus":"<div style=\"font-size:60px;\">+</div>","response":null,"screen":"fixation","trial_type":"html-keyboard-response","trial_index":164,"time_elapsed":140055,"internal_node_id":"0.0-4.0-2.0-0.14","participant_id":"9ujp95f4ye","trial_duration":781},{"rt":445,"stimulus":"stimuli/MullerLyer_str0_diff-0.341548.png","response":"arrowdown","screen":"Trial","block":"MullerLyer","correct_response":"arrowdown","trial_type":"image-keyboard-response","trial_index":165,"time_elapsed":140503,"internal_node_id":"0.0-4.0-2.0-1.14","participant_id":"9ujp95f4ye","prestimulus_duration":798,"correct":true,"type":"MullerLyer","illusion_strength":0,"illusion_difference":-0.3415483870967742,"block_number":2,"trial_number":15},{"rt":null,"stimulus":"<div style=\"font-size:60px;\">+</div>","response":null,"screen":"fixation","trial_type":"html-keyboard-response","trial_index":166,"time_elapsed":141261,"internal_node_id":"0.0-4.0-2.0-0.15","participant_id":"9ujp95f4ye","trial_duration":750},{"rt":481,"stimulus":"stimuli/MullerLyer_str0_diff0.341548.png","response":"arrowup","screen":"Trial","block":"MullerLyer","correct_response":"arrowup","trial_type":"image-keyboard-response","trial_index":167,"time_elapsed":141746,"internal_node_id":"0.0-4.0-2.0-1.15","participant_id":"9ujp95f4ye","prestimulus_duration":758,"correct":true,"type":"MullerLyer","illusion_strength":0,"illusion_difference":0.3415483870967742,"block_number":2,"trial_number":16},{"rt":null,"stimulus":"<div style=\"font-size:60px;\">+</div>","response":null,"screen":"fixation","trial_type":"html-keyboard-response","trial_index":168,"time_elapsed":142286,"internal_node_id":"0.0-4.0-2.0-0.16","participant_id":"9ujp95f4ye","trial_duration":532},{"rt":622,"stimulus":"stimuli/MullerLyer_str0_diff0.149065.png","response":"arrowup","screen":"Trial","block":"MullerLyer","correct_response":"arrowup","trial_type":"image-keyboard-response","trial_index":169,"time_elapsed":142915,"internal_node_id":"0.0-4.0-2.0-1.16","participant_id":"9ujp95f4ye","prestimulus_duration":540,"correct":true,"type":"MullerLyer","illusion_strength":0,"illusion_difference":0.14906451612903227,"block_number":2,"trial_number":17},{"rt":null,"stimulus":"<div style=\"font-size:60px;\">+</div>","response":null,"screen":"fixation","trial_type":"html-keyboard-response","trial_index":170,"time_elapsed":143802,"internal_node_id":"0.0-4.0-2.0-0.17","participant_id":"9ujp95f4ye","trial_duration":882},{"rt":421,"stimulus":"stimuli/MullerLyer_str0_diff-0.223097.png","response":"arrowdown","screen":"Trial","block":"MullerLyer","correct_response":"arrowdown","trial_type":"image-keyboard-response","trial_index":171,"time_elapsed":144227,"internal_node_id":"0.0-4.0-2.0-1.17","participant_id":"9ujp95f4ye","prestimulus_duration":887,"correct":true,"type":"MullerLyer","illusion_strength":0,"illusion_difference":-0.2230967741935484,"block_number":2,"trial_number":18},{"rt":null,"stimulus":"<div style=\"font-size:60px;\">+</div>","response":null,"screen":"fixation","trial_type":"html-keyboard-response","trial_index":172,"time_elapsed":144845,"internal_node_id":"0.0-4.0-2.0-0.18","participant_id":"9ujp95f4ye","trial_duration":600},{"rt":555,"stimulus":"stimuli/MullerLyer_str0_diff0.193484.png","response":"arrowup","screen":"Trial","block":"MullerLyer","correct_response":"arrowup","trial_type":"image-keyboard-response","trial_index":173,"time_elapsed":145401,"internal_node_id":"0.0-4.0-2.0-1.18","participant_id":"9ujp95f4ye","prestimulus_duration":618,"correct":true,"type":"MullerLyer","illusion_strength":0,"illusion_difference":0.19348387096774194,"block_number":2,"trial_number":19},{"rt":null,"stimulus":"<div style=\"font-size:60px;\">+</div>","response":null,"screen":"fixation","trial_type":"html-keyboard-response","trial_index":174,"time_elapsed":146189,"internal_node_id":"0.0-4.0-2.0-0.19","participant_id":"9ujp95f4ye","trial_duration":771},{"rt":438,"stimulus":"stimuli/MullerLyer_str0_diff-0.311935.png","response":"arrowdown","screen":"Trial","block":"MullerLyer","correct_response":"arrowdown","trial_type":"image-keyboard-response","trial_index":175,"time_elapsed":146631,"internal_node_id":"0.0-4.0-2.0-1.19","participant_id":"9ujp95f4ye","prestimulus_duration":788,"correct":true,"type":"MullerLyer","illusion_strength":0,"illusion_difference":-0.31193548387096776,"block_number":2,"trial_number":20},{"rt":null,"stimulus":"<div style=\"font-size:60px;\">+</div>","response":null,"screen":"fixation","trial_type":"html-keyboard-response","trial_index":176,"time_elapsed":147454,"internal_node_id":"0.0-4.0-2.0-0.20","participant_id":"9ujp95f4ye","trial_duration":807},{"rt":456,"stimulus":"stimuli/MullerLyer_str0_diff0.104645.png","response":"arrowup","screen":"Trial","block":"MullerLyer","correct_response":"arrowup","trial_type":"image-keyboard-response","trial_index":177,"time_elapsed":147914,"internal_node_id":"0.0-4.0-2.0-1.20","participant_id":"9ujp95f4ye","prestimulus_duration":823,"correct":true,"type":"MullerLyer","illusion_strength":0,"illusion_difference":0.10464516129032259,"block_number":2,"trial_number":21},{"rt":null,"stimulus":"<div style=\"font-size:60px;\">+</div>","response":null,"screen":"fixation","trial_type":"html-keyboard-response","trial_index":178,"time_elapsed":148780,"internal_node_id":"0.0-4.0-2.0-0.21","participant_id":"9ujp95f4ye","trial_duration":860},{"rt":418,"stimulus":"stimuli/MullerLyer_str0_diff-0.25271.png","response":"arrowdown","screen":"Trial","block":"MullerLyer","correct_response":"arrowdown","trial_type":"image-keyboard-response","trial_index":179,"time_elapsed":149202,"internal_node_id":"0.0-4.0-2.0-1.21","participant_id":"9ujp95f4ye","prestimulus_duration":866,"correct":true,"type":"MullerLyer","illusion_strength":0,"illusion_difference":-0.25270967741935485,"block_number":2,"trial_number":22},{"rt":null,"stimulus":"<div style=\"font-size:60px;\">+</div>","response":null,"screen":"fixation","trial_type":"html-keyboard-response","trial_index":180,"time_elapsed":150045,"internal_node_id":"0.0-4.0-2.0-0.22","participant_id":"9ujp95f4ye","trial_duration":833},{"rt":573,"stimulus":"stimuli/MullerLyer_str0_diff0.060226.png","response":"arrowup","screen":"Trial","block":"MullerLyer","correct_response":"arrowup","trial_type":"image-keyboard-response","trial_index":181,"time_elapsed":150623,"internal_node_id":"0.0-4.0-2.0-1.22","participant_id":"9ujp95f4ye","prestimulus_duration":843,"correct":true,"type":"MullerLyer","illusion_strength":0,"illusion_difference":0.06022580645161291,"block_number":2,"trial_number":23},{"rt":null,"stimulus":"<div style=\"font-size:60px;\">+</div>","response":null,"screen":"fixation","trial_type":"html-keyboard-response","trial_index":182,"time_elapsed":151326,"internal_node_id":"0.0-4.0-2.0-0.23","participant_id":"9ujp95f4ye","trial_duration":700},{"rt":430,"stimulus":"stimuli/MullerLyer_str0_diff-0.371161.png","response":"arrowdown","screen":"Trial","block":"MullerLyer","correct_response":"arrowdown","trial_type":"image-keyboard-response","trial_index":183,"time_elapsed":151759,"internal_node_id":"0.0-4.0-2.0-1.23","participant_id":"9ujp95f4ye","prestimulus_duration":703,"correct":true,"type":"MullerLyer","illusion_strength":0,"illusion_difference":-0.37116129032258066,"block_number":2,"trial_number":24},{"rt":null,"stimulus":"<div style=\"font-size:60px;\">+</div>","response":null,"screen":"fixation","trial_type":"html-keyboard-response","trial_index":184,"time_elapsed":152464,"internal_node_id":"0.0-4.0-2.0-0.24","participant_id":"9ujp95f4ye","trial_duration":694},{"rt":424,"stimulus":"stimuli/MullerLyer_str0_diff0.267516.png","response":"arrowup","screen":"Trial","block":"MullerLyer","correct_response":"arrowup","trial_type":"image-keyboard-response","trial_index":185,"time_elapsed":152905,"internal_node_id":"0.0-4.0-2.0-1.24","participant_id":"9ujp95f4ye","prestimulus_duration":705,"correct":true,"type":"MullerLyer","illusion_strength":0,"illusion_difference":0.2675161290322581,"block_number":2,"trial_number":25},{"rt":null,"stimulus":"<div style=\"font-size:60px;\">+</div>","response":null,"screen":"fixation","trial_type":"html-keyboard-response","trial_index":186,"time_elapsed":153462,"internal_node_id":"0.0-4.0-2.0-0.25","participant_id":"9ujp95f4ye","trial_duration":550},{"rt":382,"stimulus":"stimuli/MullerLyer_str0_diff-0.400774.png","response":"arrowdown","screen":"Trial","block":"MullerLyer","correct_response":"arrowdown","trial_type":"image-keyboard-response","trial_index":187,"time_elapsed":153847,"internal_node_id":"0.0-4.0-2.0-1.25","participant_id":"9ujp95f4ye","prestimulus_duration":557,"correct":true,"type":"MullerLyer","illusion_strength":0,"illusion_difference":-0.4007741935483871,"block_number":2,"trial_number":26},{"rt":null,"stimulus":"<div style=\"font-size:60px;\">+</div>","response":null,"screen":"fixation","trial_type":"html-keyboard-response","trial_index":188,"time_elapsed":154478,"internal_node_id":"0.0-4.0-2.0-0.26","participant_id":"9ujp95f4ye","trial_duration":624},{"rt":530,"stimulus":"stimuli/MullerLyer_str0_diff-0.119452.png","response":"arrowdown","screen":"Trial","block":"MullerLyer","correct_response":"arrowdown","trial_type":"image-keyboard-response","trial_index":189,"time_elapsed":155009,"internal_node_id":"0.0-4.0-2.0-1.26","participant_id":"9ujp95f4ye","prestimulus_duration":631,"correct":true,"type":"MullerLyer","illusion_strength":0,"illusion_difference":-0.11945161290322581,"block_number":2,"trial_number":27},{"rt":null,"stimulus":"<div style=\"font-size:60px;\">+</div>","response":null,"screen":"fixation","trial_type":"html-keyboard-response","trial_index":190,"time_elapsed":155632,"internal_node_id":"0.0-4.0-2.0-0.27","participant_id":"9ujp95f4ye","trial_duration":611},{"rt":465,"stimulus":"stimuli/MullerLyer_str0_diff-0.134258.png","response":"arrowdown","screen":"Trial","block":"MullerLyer","correct_response":"arrowdown","trial_type":"image-keyboard-response","trial_index":191,"time_elapsed":156097,"internal_node_id":"0.0-4.0-2.0-1.27","participant_id":"9ujp95f4ye","prestimulus_duration":623,"correct":true,"type":"MullerLyer","illusion_strength":0,"illusion_difference":-0.13425806451612904,"block_number":2,"trial_number":28},{"rt":null,"stimulus":"<div style=\"font-size:60px;\">+</div>","response":null,"screen":"fixation","trial_type":"html-keyboard-response","trial_index":192,"time_elapsed":156929,"internal_node_id":"0.0-4.0-2.0-0.28","participant_id":"9ujp95f4ye","trial_duration":818},{"rt":407,"stimulus":"stimuli/MullerLyer_str0_diff-0.237903.png","response":"arrowdown","screen":"Trial","block":"MullerLyer","correct_response":"arrowdown","trial_type":"image-keyboard-response","trial_index":193,"time_elapsed":157337,"internal_node_id":"0.0-4.0-2.0-1.28","participant_id":"9ujp95f4ye","prestimulus_duration":832,"correct":true,"type":"MullerLyer","illusion_strength":0,"illusion_difference":-0.23790322580645162,"block_number":2,"trial_number":29},{"rt":null,"stimulus":"<div style=\"font-size:60px;\">+</div>","response":null,"screen":"fixation","trial_type":"html-keyboard-response","trial_index":194,"time_elapsed":158206,"internal_node_id":"0.0-4.0-2.0-0.29","participant_id":"9ujp95f4ye","trial_duration":855},{"rt":710,"stimulus":"stimuli/MullerLyer_str0_diff-0.030613.png","response":"arrowdown","screen":"Trial","block":"MullerLyer","correct_response":"arrowdown","trial_type":"image-keyboard-response","trial_index":195,"time_elapsed":158919,"internal_node_id":"0.0-4.0-2.0-1.29","participant_id":"9ujp95f4ye","prestimulus_duration":869,"correct":true,"type":"MullerLyer","illusion_strength":0,"illusion_difference":-0.030612903225806454,"block_number":2,"trial_number":30},{"rt":null,"stimulus":"<div style=\"font-size:60px;\">+</div>","response":null,"screen":"fixation","trial_type":"html-keyboard-response","trial_index":196,"time_elapsed":159579,"internal_node_id":"0.0-4.0-2.0-0.30","participant_id":"9ujp95f4ye","trial_duration":651},{"rt":536,"stimulus":"stimuli/MullerLyer_str0_diff-0.089839.png","response":"arrowdown","screen":"Trial","block":"MullerLyer","correct_response":"arrowdown","trial_type":"image-keyboard-response","trial_index":197,"time_elapsed":160119,"internal_node_id":"0.0-4.0-2.0-1.30","participant_id":"9ujp95f4ye","prestimulus_duration":660,"correct":true,"type":"MullerLyer","illusion_strength":0,"illusion_difference":-0.08983870967741936,"block_number":2,"trial_number":31},{"rt":null,"stimulus":"<div style=\"font-size:60px;\">+</div>","response":null,"screen":"fixation","trial_type":"html-keyboard-response","trial_index":198,"time_elapsed":160880,"internal_node_id":"0.0-4.0-2.0-0.31","participant_id":"9ujp95f4ye","trial_duration":746},{"rt":608,"stimulus":"stimuli/MullerLyer_str0_diff0.089839.png","response":"arrowup","screen":"Trial","block":"MullerLyer","correct_response":"arrowup","trial_type":"image-keyboard-response","trial_index":199,"time_elapsed":161489,"internal_node_id":"0.0-4.0-2.0-1.31","participant_id":"9ujp95f4ye","prestimulus_duration":761,"correct":true,"type":"MullerLyer","illusion_strength":0,"illusion_difference":0.08983870967741936,"block_number":2,"trial_number":32},{"rt":null,"stimulus":"<div style=\"font-size:60px;\">+</div>","response":null,"screen":"fixation","trial_type":"html-keyboard-response","trial_index":200,"time_elapsed":162265,"internal_node_id":"0.0-4.0-2.0-0.32","participant_id":"9ujp95f4ye","trial_duration":769},{"rt":474,"stimulus":"stimuli/MullerLyer_str0_diff0.326742.png","response":"arrowup","screen":"Trial","block":"MullerLyer","correct_response":"arrowup","trial_type":"image-keyboard-response","trial_index":201,"time_elapsed":162743,"internal_node_id":"0.0-4.0-2.0-1.32","participant_id":"9ujp95f4ye","prestimulus_duration":776,"correct":true,"type":"MullerLyer","illusion_strength":0,"illusion_difference":0.326741935483871,"block_number":2,"trial_number":33},{"rt":null,"stimulus":"<div style=\"font-size:60px;\">+</div>","response":null,"screen":"fixation","trial_type":"html-keyboard-response","trial_index":202,"time_elapsed":163403,"internal_node_id":"0.0-4.0-2.0-0.33","participant_id":"9ujp95f4ye","trial_duration":656},{"rt":481,"stimulus":"stimuli/MullerLyer_str0_diff0.119452.png","response":"arrowdown","screen":"Trial","block":"MullerLyer","correct_response":"arrowup","trial_type":"image-keyboard-response","trial_index":203,"time_elapsed":163887,"internal_node_id":"0.0-4.0-2.0-1.33","participant_id":"9ujp95f4ye","prestimulus_duration":660,"correct":false,"type":"MullerLyer","illusion_strength":0,"illusion_difference":0.11945161290322581,"block_number":2,"trial_number":34},{"rt":null,"stimulus":"<div style=\"font-size:60px;\">+</div>","response":null,"screen":"fixation","trial_type":"html-keyboard-response","trial_index":204,"time_elapsed":164651,"internal_node_id":"0.0-4.0-2.0-0.34","participant_id":"9ujp95f4ye","trial_duration":750},{"rt":394,"stimulus":"stimuli/MullerLyer_str0_diff0.282323.png","response":"arrowup","screen":"Trial","block":"MullerLyer","correct_response":"arrowup","trial_type":"image-keyboard-response","trial_index":205,"time_elapsed":165049,"internal_node_id":"0.0-4.0-2.0-1.34","participant_id":"9ujp95f4ye","prestimulus_duration":764,"correct":true,"type":"MullerLyer","illusion_strength":0,"illusion_difference":0.2823225806451613,"block_number":2,"trial_number":35},{"rt":null,"stimulus":"<div style=\"font-size:60px;\">+</div>","response":null,"screen":"fixation","trial_type":"html-keyboard-response","trial_index":206,"time_elapsed":165744,"internal_node_id":"0.0-4.0-2.0-0.35","participant_id":"9ujp95f4ye","trial_duration":685},{"rt":467,"stimulus":"stimuli/MullerLyer_str0_diff-0.430387.png","response":"arrowdown","screen":"Trial","block":"MullerLyer","correct_response":"arrowdown","trial_type":"image-keyboard-response","trial_index":207,"time_elapsed":166215,"internal_node_id":"0.0-4.0-2.0-1.35","participant_id":"9ujp95f4ye","prestimulus_duration":695,"correct":true,"type":"MullerLyer","illusion_strength":0,"illusion_difference":-0.43038709677419357,"block_number":2,"trial_number":36},{"rt":null,"stimulus":"<div style=\"font-size:60px;\">+</div>","response":null,"screen":"fixation","trial_type":"html-keyboard-response","trial_index":208,"time_elapsed":166944,"internal_node_id":"0.0-4.0-2.0-0.36","participant_id":"9ujp95f4ye","trial_duration":721},{"rt":440,"stimulus":"stimuli/MullerLyer_str0_diff-0.267516.png","response":"arrowdown","screen":"Trial","block":"MullerLyer","correct_response":"arrowdown","trial_type":"image-keyboard-response","trial_index":209,"time_elapsed":167386,"internal_node_id":"0.0-4.0-2.0-1.36","participant_id":"9ujp95f4ye","prestimulus_duration":729,"correct":true,"type":"MullerLyer","illusion_strength":0,"illusion_difference":-0.2675161290322581,"block_number":2,"trial_number":37},{"rt":null,"stimulus":"<div style=\"font-size:60px;\">+</div>","response":null,"screen":"fixation","trial_type":"html-keyboard-response","trial_index":210,"time_elapsed":168071,"internal_node_id":"0.0-4.0-2.0-0.37","participant_id":"9ujp95f4ye","trial_duration":681},{"rt":727,"stimulus":"stimuli/MullerLyer_str0_diff-0.015806.png","response":"arrowup","screen":"Trial","block":"MullerLyer","correct_response":"arrowdown","trial_type":"image-keyboard-response","trial_index":211,"time_elapsed":168799,"internal_node_id":"0.0-4.0-2.0-1.37","participant_id":"9ujp95f4ye","prestimulus_duration":685,"correct":false,"type":"MullerLyer","illusion_strength":0,"illusion_difference":-0.015806451612903227,"block_number":2,"trial_number":38},{"rt":null,"stimulus":"<div style=\"font-size:60px;\">+</div>","response":null,"screen":"fixation","trial_type":"html-keyboard-response","trial_index":212,"time_elapsed":169331,"internal_node_id":"0.0-4.0-2.0-0.38","participant_id":"9ujp95f4ye","trial_duration":522},{"rt":535,"stimulus":"stimuli/MullerLyer_str0_diff-0.282323.png","response":"arrowdown","screen":"Trial","block":"MullerLyer","correct_response":"arrowdown","trial_type":"image-keyboard-response","trial_index":213,"time_elapsed":169871,"internal_node_id":"0.0-4.0-2.0-1.38","participant_id":"9ujp95f4ye","prestimulus_duration":532,"correct":true,"type":"MullerLyer","illusion_strength":0,"illusion_difference":-0.2823225806451613,"block_number":2,"trial_number":39},{"rt":null,"stimulus":"<div style=\"font-size:60px;\">+</div>","response":null,"screen":"fixation","trial_type":"html-keyboard-response","trial_index":214,"time_elapsed":170501,"internal_node_id":"0.0-4.0-2.0-0.39","participant_id":"9ujp95f4ye","trial_duration":622},{"rt":445,"stimulus":"stimuli/MullerLyer_str0_diff-0.178677.png","response":"arrowdown","screen":"Trial","block":"MullerLyer","correct_response":"arrowdown","trial_type":"image-keyboard-response","trial_index":215,"time_elapsed":170947,"internal_node_id":"0.0-4.0-2.0-1.39","participant_id":"9ujp95f4ye","prestimulus_duration":630,"correct":true,"type":"MullerLyer","illusion_strength":0,"illusion_difference":-0.17867741935483872,"block_number":2,"trial_number":40},{"rt":null,"stimulus":"<div style=\"font-size:60px;\">+</div>","response":null,"screen":"fixation","trial_type":"html-keyboard-response","trial_index":216,"time_elapsed":171881,"internal_node_id":"0.0-4.0-2.0-0.40","participant_id":"9ujp95f4ye","trial_duration":920},{"rt":439,"stimulus":"stimuli/MullerLyer_str0_diff0.237903.png","response":"arrowup","screen":"Trial","block":"MullerLyer","correct_response":"arrowup","trial_type":"image-keyboard-response","trial_index":217,"time_elapsed":172323,"internal_node_id":"0.0-4.0-2.0-1.40","participant_id":"9ujp95f4ye","prestimulus_duration":934,"correct":true,"type":"MullerLyer","illusion_strength":0,"illusion_difference":0.23790322580645162,"block_number":2,"trial_number":41},{"rt":null,"stimulus":"<div style=\"font-size:60px;\">+</div>","response":null,"screen":"fixation","trial_type":"html-keyboard-response","trial_index":218,"time_elapsed":173231,"internal_node_id":"0.0-4.0-2.0-0.41","participant_id":"9ujp95f4ye","trial_duration":902},{"rt":446,"stimulus":"stimuli/MullerLyer_str0_diff0.297129.png","response":"arrowup","screen":"Trial","block":"MullerLyer","correct_response":"arrowup","trial_type":"image-keyboard-response","trial_index":219,"time_elapsed":173681,"internal_node_id":"0.0-4.0-2.0-1.41","participant_id":"9ujp95f4ye","prestimulus_duration":908,"correct":true,"type":"MullerLyer","illusion_strength":0,"illusion_difference":0.29712903225806453,"block_number":2,"trial_number":42},{"rt":null,"stimulus":"<div style=\"font-size:60px;\">+</div>","response":null,"screen":"fixation","trial_type":"html-keyboard-response","trial_index":220,"time_elapsed":174278,"internal_node_id":"0.0-4.0-2.0-0.42","participant_id":"9ujp95f4ye","trial_duration":579},{"rt":457,"stimulus":"stimuli/MullerLyer_str0_diff-0.163871.png","response":"arrowdown","screen":"Trial","block":"MullerLyer","correct_response":"arrowdown","trial_type":"image-keyboard-response","trial_index":221,"time_elapsed":174740,"internal_node_id":"0.0-4.0-2.0-1.42","participant_id":"9ujp95f4ye","prestimulus_duration":597,"correct":true,"type":"MullerLyer","illusion_strength":0,"illusion_difference":-0.1638709677419355,"block_number":2,"trial_number":43},{"rt":null,"stimulus":"<div style=\"font-size:60px;\">+</div>","response":null,"screen":"fixation","trial_type":"html-keyboard-response","trial_index":222,"time_elapsed":175432,"internal_node_id":"0.0-4.0-2.0-0.43","participant_id":"9ujp95f4ye","trial_duration":685},{"rt":467,"stimulus":"stimuli/MullerLyer_str0_diff-0.415581.png","response":"arrowdown","screen":"Trial","block":"MullerLyer","correct_response":"arrowdown","trial_type":"image-keyboard-response","trial_index":223,"time_elapsed":175903,"internal_node_id":"0.0-4.0-2.0-1.43","participant_id":"9ujp95f4ye","prestimulus_duration":692,"correct":true,"type":"MullerLyer","illusion_strength":0,"illusion_difference":-0.41558064516129034,"block_number":2,"trial_number":44},{"rt":null,"stimulus":"<div style=\"font-size:60px;\">+</div>","response":null,"screen":"fixation","trial_type":"html-keyboard-response","trial_index":224,"time_elapsed":176590,"internal_node_id":"0.0-4.0-2.0-0.44","participant_id":"9ujp95f4ye","trial_duration":681},{"rt":663,"stimulus":"stimuli/MullerLyer_str0_diff0.045419.png","response":"arrowup","screen":"Trial","block":"MullerLyer","correct_response":"arrowup","trial_type":"image-keyboard-response","trial_index":225,"time_elapsed":177257,"internal_node_id":"0.0-4.0-2.0-1.44","participant_id":"9ujp95f4ye","prestimulus_duration":687,"correct":true,"type":"MullerLyer","illusion_strength":0,"illusion_difference":0.04541935483870968,"block_number":2,"trial_number":45},{"rt":null,"stimulus":"<div style=\"font-size:60px;\">+</div>","response":null,"screen":"fixation","trial_type":"html-keyboard-response","trial_index":226,"time_elapsed":178009,"internal_node_id":"0.0-4.0-2.0-0.45","participant_id":"9ujp95f4ye","trial_duration":744},{"rt":455,"stimulus":"stimuli/MullerLyer_str0_diff-0.045419.png","response":"arrowdown","screen":"Trial","block":"MullerLyer","correct_response":"arrowdown","trial_type":"image-keyboard-response","trial_index":227,"time_elapsed":178466,"internal_node_id":"0.0-4.0-2.0-1.45","participant_id":"9ujp95f4ye","prestimulus_duration":752,"correct":true,"type":"MullerLyer","illusion_strength":0,"illusion_difference":-0.04541935483870968,"block_number":2,"trial_number":46},{"rt":null,"stimulus":"<div style=\"font-size:60px;\">+</div>","response":null,"screen":"fixation","trial_type":"html-keyboard-response","trial_index":228,"time_elapsed":179372,"internal_node_id":"0.0-4.0-2.0-0.46","participant_id":"9ujp95f4ye","trial_duration":902},{"rt":497,"stimulus":"stimuli/MullerLyer_str0_diff-0.385968.png","response":"arrowdown","screen":"Trial","block":"MullerLyer","correct_response":"arrowdown","trial_type":"image-keyboard-response","trial_index":229,"time_elapsed":179874,"internal_node_id":"0.0-4.0-2.0-1.46","participant_id":"9ujp95f4ye","prestimulus_duration":906,"correct":true,"type":"MullerLyer","illusion_strength":0,"illusion_difference":-0.3859677419354839,"block_number":2,"trial_number":47},{"rt":null,"stimulus":"<div style=\"font-size:60px;\">+</div>","response":null,"screen":"fixation","trial_type":"html-keyboard-response","trial_index":230,"time_elapsed":180888,"internal_node_id":"0.0-4.0-2.0-0.47","participant_id":"9ujp95f4ye","trial_duration":998},{"rt":470,"stimulus":"stimuli/MullerLyer_str0_diff0.163871.png","response":"arrowup","screen":"Trial","block":"MullerLyer","correct_response":"arrowup","trial_type":"image-keyboard-response","trial_index":231,"time_elapsed":181361,"internal_node_id":"0.0-4.0-2.0-1.47","participant_id":"9ujp95f4ye","prestimulus_duration":1014,"correct":true,"type":"MullerLyer","illusion_strength":0,"illusion_difference":0.1638709677419355,"block_number":2,"trial_number":48},{"rt":null,"stimulus":"<div style=\"font-size:60px;\">+</div>","response":null,"screen":"fixation","trial_type":"html-keyboard-response","trial_index":232,"time_elapsed":182414,"internal_node_id":"0.0-4.0-2.0-0.48","participant_id":"9ujp95f4ye","trial_duration":996},{"rt":453,"stimulus":"stimuli/MullerLyer_str0_diff-0.356355.png","response":"arrowdown","screen":"Trial","block":"MullerLyer","correct_response":"arrowdown","trial_type":"image-keyboard-response","trial_index":233,"time_elapsed":182871,"internal_node_id":"0.0-4.0-2.0-1.48","participant_id":"9ujp95f4ye","prestimulus_duration":1053,"correct":true,"type":"MullerLyer","illusion_strength":0,"illusion_difference":-0.35635483870967744,"block_number":2,"trial_number":49},{"rt":null,"stimulus":"<div style=\"font-size:60px;\">+</div>","response":null,"screen":"fixation","trial_type":"html-keyboard-response","trial_index":234,"time_elapsed":183823,"internal_node_id":"0.0-4.0-2.0-0.49","participant_id":"9ujp95f4ye","trial_duration":941},{"rt":447,"stimulus":"stimuli/MullerLyer_str0_diff-0.297129.png","response":"arrowdown","screen":"Trial","block":"MullerLyer","correct_response":"arrowdown","trial_type":"image-keyboard-response","trial_index":235,"time_elapsed":184271,"internal_node_id":"0.0-4.0-2.0-1.49","participant_id":"9ujp95f4ye","prestimulus_duration":952,"correct":true,"type":"MullerLyer","illusion_strength":0,"illusion_difference":-0.29712903225806453,"block_number":2,"trial_number":50},{"rt":null,"stimulus":"<div style=\"font-size:60px;\">+</div>","response":null,"screen":"fixation","trial_type":"html-keyboard-response","trial_index":236,"time_elapsed":185013,"internal_node_id":"0.0-4.0-2.0-0.50","participant_id":"9ujp95f4ye","trial_duration":736},{"rt":819,"stimulus":"stimuli/MullerLyer_str0_diff-0.060226.png","response":"arrowdown","screen":"Trial","block":"MullerLyer","correct_response":"arrowdown","trial_type":"image-keyboard-response","trial_index":237,"time_elapsed":185836,"internal_node_id":"0.0-4.0-2.0-1.50","participant_id":"9ujp95f4ye","prestimulus_duration":742,"correct":true,"type":"MullerLyer","illusion_strength":0,"illusion_difference":-0.06022580645161291,"block_number":2,"trial_number":51},{"rt":null,"stimulus":"<div style=\"font-size:60px;\">+</div>","response":null,"screen":"fixation","trial_type":"html-keyboard-response","trial_index":238,"time_elapsed":186819,"internal_node_id":"0.0-4.0-2.0-0.51","participant_id":"9ujp95f4ye","trial_duration":967},{"rt":441,"stimulus":"stimuli/MullerLyer_str0_diff-0.445194.png","response":"arrowdown","screen":"Trial","block":"MullerLyer","correct_response":"arrowdown","trial_type":"image-keyboard-response","trial_index":239,"time_elapsed":187263,"internal_node_id":"0.0-4.0-2.0-1.51","participant_id":"9ujp95f4ye","prestimulus_duration":983,"correct":true,"type":"MullerLyer","illusion_strength":0,"illusion_difference":-0.4451935483870968,"block_number":2,"trial_number":52},{"rt":null,"stimulus":"<div style=\"font-size:60px;\">+</div>","response":null,"screen":"fixation","trial_type":"html-keyboard-response","trial_index":240,"time_elapsed":188054,"internal_node_id":"0.0-4.0-2.0-0.52","participant_id":"9ujp95f4ye","trial_duration":789},{"rt":497,"stimulus":"stimuli/MullerLyer_str0_diff0.445194.png","response":"arrowup","screen":"Trial","block":"MullerLyer","correct_response":"arrowup","trial_type":"image-keyboard-response","trial_index":241,"time_elapsed":188554,"internal_node_id":"0.0-4.0-2.0-1.52","participant_id":"9ujp95f4ye","prestimulus_duration":791,"correct":true,"type":"MullerLyer","illusion_strength":0,"illusion_difference":0.4451935483870968,"block_number":2,"trial_number":53},{"rt":null,"stimulus":"<div style=\"font-size:60px;\">+</div>","response":null,"screen":"fixation","trial_type":"html-keyboard-response","trial_index":242,"time_elapsed":189524,"internal_node_id":"0.0-4.0-2.0-0.53","participant_id":"9ujp95f4ye","trial_duration":959},{"rt":546,"stimulus":"stimuli/MullerLyer_str0_diff0.178677.png","response":"arrowup","screen":"Trial","block":"MullerLyer","correct_response":"arrowup","trial_type":"image-keyboard-response","trial_index":243,"time_elapsed":190074,"internal_node_id":"0.0-4.0-2.0-1.53","participant_id":"9ujp95f4ye","prestimulus_duration":970,"correct":true,"type":"MullerLyer","illusion_strength":0,"illusion_difference":0.17867741935483872,"block_number":2,"trial_number":54},{"rt":null,"stimulus":"<div style=\"font-size:60px;\">+</div>","response":null,"screen":"fixation","trial_type":"html-keyboard-response","trial_index":244,"time_elapsed":190660,"internal_node_id":"0.0-4.0-2.0-0.54","participant_id":"9ujp95f4ye","trial_duration":584},{"rt":513,"stimulus":"stimuli/MullerLyer_str0_diff-0.149065.png","response":"arrowdown","screen":"Trial","block":"MullerLyer","correct_response":"arrowdown","trial_type":"image-keyboard-response","trial_index":245,"time_elapsed":191178,"internal_node_id":"0.0-4.0-2.0-1.54","participant_id":"9ujp95f4ye","prestimulus_duration":586,"correct":true,"type":"MullerLyer","illusion_strength":0,"illusion_difference":-0.14906451612903227,"block_number":2,"trial_number":55},{"rt":null,"stimulus":"<div style=\"font-size:60px;\">+</div>","response":null,"screen":"fixation","trial_type":"html-keyboard-response","trial_index":246,"time_elapsed":192102,"internal_node_id":"0.0-4.0-2.0-0.55","participant_id":"9ujp95f4ye","trial_duration":921},{"rt":468,"stimulus":"stimuli/MullerLyer_str0_diff-0.075032.png","response":"arrowdown","screen":"Trial","block":"MullerLyer","correct_response":"arrowdown","trial_type":"image-keyboard-response","trial_index":247,"time_elapsed":192575,"internal_node_id":"0.0-4.0-2.0-1.55","participant_id":"9ujp95f4ye","prestimulus_duration":924,"correct":true,"type":"MullerLyer","illusion_strength":0,"illusion_difference":-0.07503225806451613,"block_number":2,"trial_number":56},{"rt":null,"stimulus":"<div style=\"font-size:60px;\">+</div>","response":null,"screen":"fixation","trial_type":"html-keyboard-response","trial_index":248,"time_elapsed":193366,"internal_node_id":"0.0-4.0-2.0-0.56","participant_id":"9ujp95f4ye","trial_duration":790},{"rt":408,"stimulus":"stimuli/MullerLyer_str0_diff0.385968.png","response":"arrowup","screen":"Trial","block":"MullerLyer","correct_response":"arrowup","trial_type":"image-keyboard-response","trial_index":249,"time_elapsed":193775,"internal_node_id":"0.0-4.0-2.0-1.56","participant_id":"9ujp95f4ye","prestimulus_duration":791,"correct":true,"type":"MullerLyer","illusion_strength":0,"illusion_difference":0.3859677419354839,"block_number":2,"trial_number":57},{"rt":null,"stimulus":"<div style=\"font-size:60px;\">+</div>","response":null,"screen":"fixation","trial_type":"html-keyboard-response","trial_index":250,"time_elapsed":194337,"internal_node_id":"0.0-4.0-2.0-0.57","participant_id":"9ujp95f4ye","trial_duration":546},{"rt":512,"stimulus":"stimuli/MullerLyer_str0_diff0.075032.png","response":"arrowdown","screen":"Trial","block":"MullerLyer","correct_response":"arrowup","trial_type":"image-keyboard-response","trial_index":251,"time_elapsed":194856,"internal_node_id":"0.0-4.0-2.0-1.57","participant_id":"9ujp95f4ye","prestimulus_duration":562,"correct":false,"type":"MullerLyer","illusion_strength":0,"illusion_difference":0.07503225806451613,"block_number":2,"trial_number":58},{"rt":null,"stimulus":"<div style=\"font-size:60px;\">+</div>","response":null,"screen":"fixation","trial_type":"html-keyboard-response","trial_index":252,"time_elapsed":195605,"internal_node_id":"0.0-4.0-2.0-0.58","participant_id":"9ujp95f4ye","trial_duration":745},{"rt":419,"stimulus":"stimuli/MullerLyer_str0_diff0.223097.png","response":"arrowup","screen":"Trial","block":"MullerLyer","correct_response":"arrowup","trial_type":"image-keyboard-response","trial_index":253,"time_elapsed":196026,"internal_node_id":"0.0-4.0-2.0-1.58","participant_id":"9ujp95f4ye","prestimulus_duration":749,"correct":true,"type":"MullerLyer","illusion_strength":0,"illusion_difference":0.2230967741935484,"block_number":2,"trial_number":59},{"rt":null,"stimulus":"<div style=\"font-size:60px;\">+</div>","response":null,"screen":"fixation","trial_type":"html-keyboard-response","trial_index":254,"time_elapsed":196806,"internal_node_id":"0.0-4.0-2.0-0.59","participant_id":"9ujp95f4ye","trial_duration":766},{"rt":426,"stimulus":"stimuli/MullerLyer_str0_diff-0.326742.png","response":"arrowdown","screen":"Trial","block":"MullerLyer","correct_response":"arrowdown","trial_type":"image-keyboard-response","trial_index":255,"time_elapsed":197233,"internal_node_id":"0.0-4.0-2.0-1.59","participant_id":"9ujp95f4ye","prestimulus_duration":780,"correct":true,"type":"MullerLyer","illusion_strength":0,"illusion_difference":-0.326741935483871,"block_number":2,"trial_number":60},{"rt":null,"stimulus":"<div style=\"font-size:60px;\">+</div>","response":null,"screen":"fixation","trial_type":"html-keyboard-response","trial_index":256,"time_elapsed":197863,"internal_node_id":"0.0-4.0-2.0-0.60","participant_id":"9ujp95f4ye","trial_duration":606},{"rt":439,"stimulus":"stimuli/MullerLyer_str0_diff0.430387.png","response":"arrowup","screen":"Trial","block":"MullerLyer","correct_response":"arrowup","trial_type":"image-keyboard-response","trial_index":257,"time_elapsed":198305,"internal_node_id":"0.0-4.0-2.0-1.60","participant_id":"9ujp95f4ye","prestimulus_duration":630,"correct":true,"type":"MullerLyer","illusion_strength":0,"illusion_difference":0.43038709677419357,"block_number":2,"trial_number":61},{"rt":null,"stimulus":"<div style=\"font-size:60px;\">+</div>","response":null,"screen":"fixation","trial_type":"html-keyboard-response","trial_index":258,"time_elapsed":199049,"internal_node_id":"0.0-4.0-2.0-0.61","participant_id":"9ujp95f4ye","trial_duration":733},{"rt":668,"stimulus":"stimuli/MullerLyer_str0_diff0.134258.png","response":"arrowup","screen":"Trial","block":"MullerLyer","correct_response":"arrowup","trial_type":"image-keyboard-response","trial_index":259,"time_elapsed":199721,"internal_node_id":"0.0-4.0-2.0-1.61","participant_id":"9ujp95f4ye","prestimulus_duration":744,"correct":true,"type":"MullerLyer","illusion_strength":0,"illusion_difference":0.13425806451612904,"block_number":2,"trial_number":62},{"rt":null,"stimulus":"<div style=\"font-size:60px;\">+</div>","response":null,"screen":"fixation","trial_type":"html-keyboard-response","trial_index":260,"time_elapsed":200341,"internal_node_id":"0.0-4.0-2.0-0.62","participant_id":"9ujp95f4ye","trial_duration":603},{"rt":441,"stimulus":"stimuli/MullerLyer_str0_diff-0.193484.png","response":"arrowdown","screen":"Trial","block":"MullerLyer","correct_response":"arrowdown","trial_type":"image-keyboard-response","trial_index":261,"time_elapsed":200785,"internal_node_id":"0.0-4.0-2.0-1.62","participant_id":"9ujp95f4ye","prestimulus_duration":620,"correct":true,"type":"MullerLyer","illusion_strength":0,"illusion_difference":-0.19348387096774194,"block_number":2,"trial_number":63},{"rt":null,"stimulus":"<div style=\"font-size:60px;\">+</div>","response":null,"screen":"fixation","trial_type":"html-keyboard-response","trial_index":262,"time_elapsed":201696,"internal_node_id":"0.0-4.0-2.0-0.63","participant_id":"9ujp95f4ye","trial_duration":908},{"rt":488,"stimulus":"stimuli/MullerLyer_str0_diff0.20829.png","response":"arrowup","screen":"Trial","block":"MullerLyer","correct_response":"arrowup","trial_type":"image-keyboard-response","trial_index":263,"time_elapsed":202186,"internal_node_id":"0.0-4.0-2.0-1.63","participant_id":"9ujp95f4ye","prestimulus_duration":911,"correct":true,"type":"MullerLyer","illusion_strength":0,"illusion_difference":0.20829032258064517,"block_number":2,"trial_number":64},{"rt":1767,"stimulus":"<p>Your score for this illusion is <p style=\"color: black; font-size: 48px; font-weight: bold;\">89</p><hr><p>Can you do better in the next block?</p>","response":0,"screen":"block_results","trial_type":"html-button-response","trial_index":264,"time_elapsed":203955,"internal_node_id":"0.0-4.0-3.0","participant_id":"9ujp95f4ye"},{"success":true,"timeout":false,"failed_images":[],"failed_audio":[],"failed_video":[],"trial_type":"preload","trial_index":265,"time_elapsed":204648,"internal_node_id":"0.0-5.0-0.0","participant_id":"9ujp95f4ye"},{"rt":4542,"stimulus":"<p><b>Part 3</b></p><p>In this part, two horizontal red lines will appear one above the other.</p><p>Your task is to tell <b>the direction</b> towards which the red lines are converging, as fast as you can, and without making errors.</p><p>Press <b>the LEFT or the RIGHT arrow</b> to indicate the <b>direction where the red lines are pointing.</b></p><div style='float: center'><img src='utils/stimuli_demo/Zollner_Demo.png' height='300'></img><p><img src='utils/answer/answer_leftright_keyboard.PNG' height='150'></img></p><p class='small'>In this example, the correct answer is the <b>LEFT arrow</b>.</p></div><p>Are you ready? <b>Press ENTER to start</b></p>","response":"enter","trial_type":"html-keyboard-response","trial_index":266,"time_elapsed":209191,"internal_node_id":"0.0-5.0-1.0","participant_id":"9ujp95f4ye"},{"rt":null,"stimulus":"<div style=\"font-size:60px;\">+</div>","response":null,"screen":"fixation","trial_type":"html-keyboard-response","trial_index":267,"time_elapsed":210276,"internal_node_id":"0.0-5.0-2.0-0.0","participant_id":"9ujp95f4ye","trial_duration":576},{"rt":436,"stimulus":"stimuli/Zollner_str0_diff5.0.png","response":"arrowleft","screen":"Trial","block":"Zollner","correct_response":"arrowright","trial_type":"image-keyboard-response","trial_index":268,"time_elapsed":210713,"internal_node_id":"0.0-5.0-2.0-1.0","participant_id":"9ujp95f4ye","prestimulus_duration":1085,"correct":false,"type":"Zollner","illusion_strength":0,"illusion_difference":5,"block_number":3,"trial_number":1},{"rt":null,"stimulus":"<div style=\"font-size:60px;\">+</div>","response":null,"screen":"fixation","trial_type":"html-keyboard-response","trial_index":269,"time_elapsed":211273,"internal_node_id":"0.0-5.0-2.0-0.1","participant_id":"9ujp95f4ye","trial_duration":543},{"rt":412,"stimulus":"stimuli/Zollner_str0_diff3.548677.png","response":"arrowleft","screen":"Trial","block":"Zollner","correct_response":"arrowright","trial_type":"image-keyboard-response","trial_index":270,"time_elapsed":211687,"internal_node_id":"0.0-5.0-2.0-1.1","participant_id":"9ujp95f4ye","prestimulus_duration":560,"correct":false,"type":"Zollner","illusion_strength":0,"illusion_difference":3.5486774193548385,"block_number":3,"trial_number":2},{"rt":null,"stimulus":"<div style=\"font-size:60px;\">+</div>","response":null,"screen":"fixation","trial_type":"html-keyboard-response","trial_index":271,"time_elapsed":212627,"internal_node_id":"0.0-5.0-2.0-0.2","participant_id":"9ujp95f4ye","trial_duration":926},{"rt":392,"stimulus":"stimuli/Zollner_str0_diff-2.903645.png","response":"arrowright","screen":"Trial","block":"Zollner","correct_response":"arrowleft","trial_type":"image-keyboard-response","trial_index":272,"time_elapsed":213022,"internal_node_id":"0.0-5.0-2.0-1.2","participant_id":"9ujp95f4ye","prestimulus_duration":940,"correct":false,"type":"Zollner","illusion_strength":0,"ill