[{"success":true,"trial_type":"fullscreen","trial_index":0,"time_elapsed":1595,"internal_node_id":"0.0-0.0","participant_id":"s3q96vsg9s"},{"success":true,"timeout":false,"failed_images":[],"failed_audio":[],"failed_video":[],"trial_type":"preload","trial_index":1,"time_elapsed":1995,"internal_node_id":"0.0-1.0","participant_id":"s3q96vsg9s"},{"rt":3024,"stimulus":"<p><b>The Illusion Game</b></p><p>In this game of speed and reflex, you will need to make <b>visual judgments</b> of different targets (for instance, which circle is the biggest, or which line is the longest), as <b>quickly</b> as possible.</p><p>It can be challenging at times, so you want to rely on your intuition and gut feeling to answer as <b>fast</b> as you can.</p><p>Don't worry, we will show you examples of each target before each block.</p><p>Remember, your goal is to be as <b>fast</b> as possible. Good luck!</p>","response":0,"screen":"general_instructions","trial_type":"html-button-response","trial_index":2,"time_elapsed":5020,"internal_node_id":"0.0-2.0","participant_id":"s3q96vsg9s"},{"success":true,"timeout":false,"failed_images":[],"failed_audio":[],"failed_video":[],"trial_type":"preload","trial_index":3,"time_elapsed":6873,"internal_node_id":"0.0-3.0-0.0","participant_id":"s3q96vsg9s"},{"rt":1489,"stimulus":"<p><b>Part 1</b></p><p>In this part, two red circles will appear side by side on the screen.</p><p>Your task is to select which <b>red circle is bigger</b> in size as fast as you can, without making errors.</p><p>Press <b>the LEFT or the RIGHT arrow</b> to indicate which is the bigger <b>red circle.</b></p><div style='float: center'><img src='utils/stimuli_demo/Delboeuf_Demo.png' height='300'></img><p><img src='utils/answer/answer_leftright_keyboard.PNG' height='150'></img></p><p class='small'>In this example, the correct answer is the <b>LEFT arrow</b>.</p></div><p>Are you ready? <b>Press ENTER to start</b></p>","response":"enter","trial_type":"html-keyboard-response","trial_index":4,"time_elapsed":8364,"internal_node_id":"0.0-3.0-1.0","participant_id":"s3q96vsg9s"},{"rt":null,"stimulus":"<div style=\"font-size:60px;\">+</div>","response":null,"screen":"fixation","trial_type":"html-keyboard-response","trial_index":5,"time_elapsed":9566,"internal_node_id":"0.0-3.0-2.0-0.0","participant_id":"s3q96vsg9s","trial_duration":690},{"rt":596,"stimulus":"stimuli/Delboeuf_str0_diff0.385231.png","response":"arrowleft","screen":"Trial","block":"Delboeuf","correct_response":"arrowleft","trial_type":"image-keyboard-response","trial_index":6,"time_elapsed":10167,"internal_node_id":"0.0-3.0-2.0-1.0","participant_id":"s3q96vsg9s","prestimulus_duration":1202,"correct":true,"type":"Delboeuf","illusion_strength":0,"illusion_difference":0.38523076923076927,"block_number":1,"trial_number":1},{"rt":null,"stimulus":"<div style=\"font-size:60px;\">+</div>","response":null,"screen":"fixation","trial_type":"html-keyboard-response","trial_index":7,"time_elapsed":10748,"internal_node_id":"0.0-3.0-2.0-0.1","participant_id":"s3q96vsg9s","trial_duration":561},{"rt":568,"stimulus":"stimuli/Delboeuf_str0_diff0.180308.png","response":"arrowright","screen":"Trial","block":"Delboeuf","correct_response":"arrowleft","trial_type":"image-keyboard-response","trial_index":8,"time_elapsed":11318,"internal_node_id":"0.0-3.0-2.0-1.1","participant_id":"s3q96vsg9s","prestimulus_duration":581,"correct":false,"type":"Delboeuf","illusion_strength":0,"illusion_difference":0.1803076923076923,"block_number":1,"trial_number":2},{"rt":null,"stimulus":"<div style=\"font-size:60px;\">+</div>","response":null,"screen":"fixation","trial_type":"html-keyboard-response","trial_index":9,"time_elapsed":12318,"internal_node_id":"0.0-3.0-2.0-0.2","participant_id":"s3q96vsg9s","trial_duration":989},{"rt":467,"stimulus":"stimuli/Delboeuf_str0_diff0.001.png","response":"arrowright","screen":"Trial","block":"Delboeuf","correct_response":"arrowleft","trial_type":"image-keyboard-response","trial_index":10,"time_elapsed":12787,"internal_node_id":"0.0-3.0-2.0-1.2","participant_id":"s3q96vsg9s","prestimulus_duration":1000,"correct":false,"type":"Delboeuf","illusion_strength":0,"illusion_difference":0.001,"block_number":1,"trial_number":3},{"rt":null,"stimulus":"<div style=\"font-size:60px;\">+</div>","response":null,"screen":"fixation","trial_type":"html-keyboard-response","trial_index":11,"time_elapsed":13732,"internal_node_id":"0.0-3.0-2.0-0.3","participant_id":"s3q96vsg9s","trial_duration":936},{"rt":541,"stimulus":"stimuli/Delboeuf_str0_diff-0.718231.png","response":"arrowright","screen":"Trial","block":"Delboeuf","correct_response":"arrowright","trial_type":"image-keyboard-response","trial_index":12,"time_elapsed":14277,"internal_node_id":"0.0-3.0-2.0-1.3","participant_id":"s3q96vsg9s","prestimulus_duration":945,"correct":true,"type":"Delboeuf","illusion_strength":0,"illusion_difference":-0.7182307692307692,"block_number":1,"trial_number":4},{"rt":null,"stimulus":"<div style=\"font-size:60px;\">+</div>","response":null,"screen":"fixation","trial_type":"html-keyboard-response","trial_index":13,"time_elapsed":14857,"internal_node_id":"0.0-3.0-2.0-0.4","participant_id":"s3q96vsg9s","trial_duration":542},{"rt":379,"stimulus":"stimuli/Delboeuf_str0_diff0.538923.png","response":"arrowleft","screen":"Trial","block":"Delboeuf","correct_response":"arrowleft","trial_type":"image-keyboard-response","trial_index":14,"time_elapsed":15237,"internal_node_id":"0.0-3.0-2.0-1.4","participant_id":"s3q96vsg9s","prestimulus_duration":580,"correct":true,"type":"Delboeuf","illusion_strength":0,"illusion_difference":0.538923076923077,"block_number":1,"trial_number":5},{"rt":null,"stimulus":"<div style=\"font-size:60px;\">+</div>","response":null,"screen":"fixation","trial_type":"html-keyboard-response","trial_index":15,"time_elapsed":15897,"internal_node_id":"0.0-3.0-2.0-0.5","participant_id":"s3q96vsg9s","trial_duration":646},{"rt":384,"stimulus":"stimuli/Delboeuf_str0_diff-0.974385.png","response":"arrowright","screen":"Trial","block":"Delboeuf","correct_response":"arrowright","trial_type":"image-keyboard-response","trial_index":16,"time_elapsed":16283,"internal_node_id":"0.0-3.0-2.0-1.5","participant_id":"s3q96vsg9s","prestimulus_duration":660,"correct":true,"type":"Delboeuf","illusion_strength":0,"illusion_difference":-0.9743846153846154,"block_number":1,"trial_number":6},{"rt":null,"stimulus":"<div style=\"font-size:60px;\">+</div>","response":null,"screen":"fixation","trial_type":"html-keyboard-response","trial_index":17,"time_elapsed":17164,"internal_node_id":"0.0-3.0-2.0-0.6","participant_id":"s3q96vsg9s","trial_duration":868},{"rt":320,"stimulus":"stimuli/Delboeuf_str0_diff0.231538.png","response":"arrowleft","screen":"Trial","block":"Delboeuf","correct_response":"arrowleft","trial_type":"image-keyboard-response","trial_index":18,"time_elapsed":17502,"internal_node_id":"0.0-3.0-2.0-1.6","participant_id":"s3q96vsg9s","prestimulus_duration":881,"correct":true,"type":"Delboeuf","illusion_strength":0,"illusion_difference":0.23153846153846155,"block_number":1,"trial_number":7},{"rt":null,"stimulus":"<div style=\"font-size:60px;\">+</div>","response":null,"screen":"fixation","trial_type":"html-keyboard-response","trial_index":19,"time_elapsed":18493,"internal_node_id":"0.0-3.0-2.0-0.7","participant_id":"s3q96vsg9s","trial_duration":977},{"rt":653,"stimulus":"stimuli/Delboeuf_str0_diff-0.026615.png","response":"arrowright","screen":"Trial","block":"Delboeuf","correct_response":"arrowright","trial_type":"image-keyboard-response","trial_index":20,"time_elapsed":19148,"internal_node_id":"0.0-3.0-2.0-1.7","participant_id":"s3q96vsg9s","prestimulus_duration":991,"correct":true,"type":"Delboeuf","illusion_strength":0,"illusion_difference":-0.026615384615384617,"block_number":1,"trial_number":8},{"rt":null,"stimulus":"<div style=\"font-size:60px;\">+</div>","response":null,"screen":"fixation","trial_type":"html-keyboard-response","trial_index":21,"time_elapsed":19952,"internal_node_id":"0.0-3.0-2.0-0.8","participant_id":"s3q96vsg9s","trial_duration":787},{"rt":368,"stimulus":"stimuli/Delboeuf_str0_diff0.334.png","response":"arrowleft","screen":"Trial","block":"Delboeuf","correct_response":"arrowleft","trial_type":"image-keyboard-response","trial_index":22,"time_elapsed":20323,"internal_node_id":"0.0-3.0-2.0-1.8","participant_id":"s3q96vsg9s","prestimulus_duration":804,"correct":true,"type":"Delboeuf","illusion_strength":0,"illusion_difference":0.334,"block_number":1,"trial_number":9},{"rt":null,"stimulus":"<div style=\"font-size:60px;\">+</div>","response":null,"screen":"fixation","trial_type":"html-keyboard-response","trial_index":23,"time_elapsed":21120,"internal_node_id":"0.0-3.0-2.0-0.9","participant_id":"s3q96vsg9s","trial_duration":781},{"rt":529,"stimulus":"stimuli/Delboeuf_str0_diff-0.052231.png","response":"arrowright","screen":"Trial","block":"Delboeuf","correct_response":"arrowright","trial_type":"image-keyboard-response","trial_index":24,"time_elapsed":21654,"internal_node_id":"0.0-3.0-2.0-1.9","participant_id":"s3q96vsg9s","prestimulus_duration":797,"correct":true,"type":"Delboeuf","illusion_strength":0,"illusion_difference":-0.05223076923076923,"block_number":1,"trial_number":10},{"rt":null,"stimulus":"<div style=\"font-size:60px;\">+</div>","response":null,"screen":"fixation","trial_type":"html-keyboard-response","trial_index":25,"time_elapsed":22634,"internal_node_id":"0.0-3.0-2.0-0.10","participant_id":"s3q96vsg9s","trial_duration":965},{"rt":405,"stimulus":"stimuli/Delboeuf_str0_diff-0.129077.png","response":"arrowright","screen":"Trial","block":"Delboeuf","correct_response":"arrowright","trial_type":"image-keyboard-response","trial_index":26,"time_elapsed":23043,"internal_node_id":"0.0-3.0-2.0-1.10","participant_id":"s3q96vsg9s","prestimulus_duration":980,"correct":true,"type":"Delboeuf","illusion_strength":0,"illusion_difference":-0.1290769230769231,"block_number":1,"trial_number":11},{"rt":null,"stimulus":"<div style=\"font-size:60px;\">+</div>","response":null,"screen":"fixation","trial_type":"html-keyboard-response","trial_index":27,"time_elapsed":23750,"internal_node_id":"0.0-3.0-2.0-0.11","participant_id":"s3q96vsg9s","trial_duration":704},{"rt":461,"stimulus":"stimuli/Delboeuf_str0_diff-0.205923.png","response":"arrowright","screen":"Trial","block":"Delboeuf","correct_response":"arrowright","trial_type":"image-keyboard-response","trial_index":28,"time_elapsed":24211,"internal_node_id":"0.0-3.0-2.0-1.11","participant_id":"s3q96vsg9s","prestimulus_duration":707,"correct":true,"type":"Delboeuf","illusion_strength":0,"illusion_difference":-0.20592307692307693,"block_number":1,"trial_number":12},{"rt":null,"stimulus":"<div style=\"font-size:60px;\">+</div>","response":null,"screen":"fixation","trial_type":"html-keyboard-response","trial_index":29,"time_elapsed":25028,"internal_node_id":"0.0-3.0-2.0-0.12","participant_id":"s3q96vsg9s","trial_duration":806},{"rt":429,"stimulus":"stimuli/Delboeuf_str0_diff0.282769.png","response":"arrowleft","screen":"Trial","block":"Delboeuf","correct_response":"arrowleft","trial_type":"image-keyboard-response","trial_index":30,"time_elapsed":25462,"internal_node_id":"0.0-3.0-2.0-1.12","participant_id":"s3q96vsg9s","prestimulus_duration":817,"correct":true,"type":"Delboeuf","illusion_strength":0,"illusion_difference":0.2827692307692308,"block_number":1,"trial_number":13},{"rt":null,"stimulus":"<div style=\"font-size:60px;\">+</div>","response":null,"screen":"fixation","trial_type":"html-keyboard-response","trial_index":31,"time_elapsed":26214,"internal_node_id":"0.0-3.0-2.0-0.13","participant_id":"s3q96vsg9s","trial_duration":741},{"rt":429,"stimulus":"stimuli/Delboeuf_str0_diff-0.001.png","response":"arrowright","screen":"Trial","block":"Delboeuf","correct_response":"arrowright","trial_type":"image-keyboard-response","trial_index":32,"time_elapsed":26644,"internal_node_id":"0.0-3.0-2.0-1.13","participant_id":"s3q96vsg9s","prestimulus_duration":752,"correct":true,"type":"Delboeuf","illusion_strength":0,"illusion_difference":-0.001,"block_number":1,"trial_number":14},{"rt":null,"stimulus":"<div style=\"font-size:60px;\">+</div>","response":null,"screen":"fixation","trial_type":"html-keyboard-response","trial_index":33,"time_elapsed":27561,"internal_node_id":"0.0-3.0-2.0-0.14","participant_id":"s3q96vsg9s","trial_duration":911},{"rt":458,"stimulus":"stimuli/Delboeuf_str0_diff-0.385231.png","response":"arrowright","screen":"Trial","block":"Delboeuf","correct_response":"arrowright","trial_type":"image-keyboard-response","trial_index":34,"time_elapsed":28020,"internal_node_id":"0.0-3.0-2.0-1.14","participant_id":"s3q96vsg9s","prestimulus_duration":917,"correct":true,"type":"Delboeuf","illusion_strength":0,"illusion_difference":-0.38523076923076927,"block_number":1,"trial_number":15},{"rt":null,"stimulus":"<div style=\"font-size:60px;\">+</div>","response":null,"screen":"fixation","trial_type":"html-keyboard-response","trial_index":35,"time_elapsed":28813,"internal_node_id":"0.0-3.0-2.0-0.15","participant_id":"s3q96vsg9s","trial_duration":788},{"rt":387,"stimulus":"stimuli/Delboeuf_str0_diff-0.743846.png","response":"arrowright","screen":"Trial","block":"Delboeuf","correct_response":"arrowright","trial_type":"image-keyboard-response","trial_index":36,"time_elapsed":29203,"internal_node_id":"0.0-3.0-2.0-1.15","participant_id":"s3q96vsg9s","prestimulus_duration":793,"correct":true,"type":"Delboeuf","illusion_strength":0,"illusion_difference":-0.7438461538461538,"block_number":1,"trial_number":16},{"rt":null,"stimulus":"<div style=\"font-size:60px;\">+</div>","response":null,"screen":"fixation","trial_type":"html-keyboard-response","trial_index":37,"time_elapsed":30011,"internal_node_id":"0.0-3.0-2.0-0.16","participant_id":"s3q96vsg9s","trial_duration":794},{"rt":367,"stimulus":"stimuli/Delboeuf_str0_diff-0.923154.png","response":"arrowright","screen":"Trial","block":"Delboeuf","correct_response":"arrowright","trial_type":"image-keyboard-response","trial_index":38,"time_elapsed":30380,"internal_node_id":"0.0-3.0-2.0-1.16","participant_id":"s3q96vsg9s","prestimulus_duration":808,"correct":true,"type":"Delboeuf","illusion_strength":0,"illusion_difference":-0.9231538461538462,"block_number":1,"trial_number":17},{"rt":null,"stimulus":"<div style=\"font-size:60px;\">+</div>","response":null,"screen":"fixation","trial_type":"html-keyboard-response","trial_index":39,"time_elapsed":31259,"internal_node_id":"0.0-3.0-2.0-0.17","participant_id":"s3q96vsg9s","trial_duration":875},{"rt":383,"stimulus":"stimuli/Delboeuf_str0_diff0.923154.png","response":"arrowleft","screen":"Trial","block":"Delboeuf","correct_response":"arrowleft","trial_type":"image-keyboard-response","trial_index":40,"time_elapsed":31646,"internal_node_id":"0.0-3.0-2.0-1.17","participant_id":"s3q96vsg9s","prestimulus_duration":879,"correct":true,"type":"Delboeuf","illusion_strength":0,"illusion_difference":0.9231538461538462,"block_number":1,"trial_number":18},{"rt":null,"stimulus":"<div style=\"font-size:60px;\">+</div>","response":null,"screen":"fixation","trial_type":"html-keyboard-response","trial_index":41,"time_elapsed":32554,"internal_node_id":"0.0-3.0-2.0-0.18","participant_id":"s3q96vsg9s","trial_duration":891},{"rt":464,"stimulus":"stimuli/Delboeuf_str0_diff-0.871923.png","response":"arrowright","screen":"Trial","block":"Delboeuf","correct_response":"arrowright","trial_type":"image-keyboard-response","trial_index":42,"time_elapsed":33020,"internal_node_id":"0.0-3.0-2.0-1.18","participant_id":"s3q96vsg9s","prestimulus_duration":908,"correct":true,"type":"Delboeuf","illusion_strength":0,"illusion_difference":-0.8719230769230769,"block_number":1,"trial_number":19},{"rt":null,"stimulus":"<div style=\"font-size:60px;\">+</div>","response":null,"screen":"fixation","trial_type":"html-keyboard-response","trial_index":43,"time_elapsed":33799,"internal_node_id":"0.0-3.0-2.0-0.19","participant_id":"s3q96vsg9s","trial_duration":766},{"rt":349,"stimulus":"stimuli/Delboeuf_str0_diff0.590154.png","response":"arrowleft","screen":"Trial","block":"Delboeuf","correct_response":"arrowleft","trial_type":"image-keyboard-response","trial_index":44,"time_elapsed":34149,"internal_node_id":"0.0-3.0-2.0-1.19","participant_id":"s3q96vsg9s","prestimulus_duration":779,"correct":true,"type":"Delboeuf","illusion_strength":0,"illusion_difference":0.5901538461538461,"block_number":1,"trial_number":20},{"rt":null,"stimulus":"<div style=\"font-size:60px;\">+</div>","response":null,"screen":"fixation","trial_type":"html-keyboard-response","trial_index":45,"time_elapsed":34906,"internal_node_id":"0.0-3.0-2.0-0.20","participant_id":"s3q96vsg9s","trial_duration":741},{"rt":432,"stimulus":"stimuli/Delboeuf_str0_diff-0.795077.png","response":"arrowright","screen":"Trial","block":"Delboeuf","correct_response":"arrowright","trial_type":"image-keyboard-response","trial_index":46,"time_elapsed":35340,"internal_node_id":"0.0-3.0-2.0-1.20","participant_id":"s3q96vsg9s","prestimulus_duration":757,"correct":true,"type":"Delboeuf","illusion_strength":0,"illusion_difference":-0.7950769230769231,"block_number":1,"trial_number":21},{"rt":null,"stimulus":"<div style=\"font-size:60px;\">+</div>","response":null,"screen":"fixation","trial_type":"html-keyboard-response","trial_index":47,"time_elapsed":36128,"internal_node_id":"0.0-3.0-2.0-0.21","participant_id":"s3q96vsg9s","trial_duration":775},{"rt":394,"stimulus":"stimuli/Delboeuf_str0_diff-0.590154.png","response":"arrowright","screen":"Trial","block":"Delboeuf","correct_response":"arrowright","trial_type":"image-keyboard-response","trial_index":48,"time_elapsed":36526,"internal_node_id":"0.0-3.0-2.0-1.21","participant_id":"s3q96vsg9s","prestimulus_duration":788,"correct":true,"type":"Delboeuf","illusion_strength":0,"illusion_difference":-0.5901538461538461,"block_number":1,"trial_number":22},{"rt":null,"stimulus":"<div style=\"font-size:60px;\">+</div>","response":null,"screen":"fixation","trial_type":"html-keyboard-response","trial_index":49,"time_elapsed":37146,"internal_node_id":"0.0-3.0-2.0-0.22","participant_id":"s3q96vsg9s","trial_duration":615},{"rt":448,"stimulus":"stimuli/Delboeuf_str0_diff-0.410846.png","response":"arrowright","screen":"Trial","block":"Delboeuf","correct_response":"arrowright","trial_type":"image-keyboard-response","trial_index":50,"time_elapsed":37599,"internal_node_id":"0.0-3.0-2.0-1.22","participant_id":"s3q96vsg9s","prestimulus_duration":620,"correct":true,"type":"Delboeuf","illusion_strength":0,"illusion_difference":-0.41084615384615386,"block_number":1,"trial_number":23},{"rt":null,"stimulus":"<div style=\"font-size:60px;\">+</div>","response":null,"screen":"fixation","trial_type":"html-keyboard-response","trial_index":51,"time_elapsed":38191,"internal_node_id":"0.0-3.0-2.0-0.23","participant_id":"s3q96vsg9s","trial_duration":580},{"rt":464,"stimulus":"stimuli/Delboeuf_str0_diff-0.282769.png","response":"arrowright","screen":"Trial","block":"Delboeuf","correct_response":"arrowright","trial_type":"image-keyboard-response","trial_index":52,"time_elapsed":38662,"internal_node_id":"0.0-3.0-2.0-1.23","participant_id":"s3q96vsg9s","prestimulus_duration":592,"correct":true,"type":"Delboeuf","illusion_strength":0,"illusion_difference":-0.2827692307692308,"block_number":1,"trial_number":24},{"rt":null,"stimulus":"<div style=\"font-size:60px;\">+</div>","response":null,"screen":"fixation","trial_type":"html-keyboard-response","trial_index":53,"time_elapsed":39329,"internal_node_id":"0.0-3.0-2.0-0.24","participant_id":"s3q96vsg9s","trial_duration":655},{"rt":444,"stimulus":"stimuli/Delboeuf_str0_diff0.718231.png","response":"arrowleft","screen":"Trial","block":"Delboeuf","correct_response":"arrowleft","trial_type":"image-keyboard-response","trial_index":54,"time_elapsed":39774,"internal_node_id":"0.0-3.0-2.0-1.24","participant_id":"s3q96vsg9s","prestimulus_duration":667,"correct":true,"type":"Delboeuf","illusion_strength":0,"illusion_difference":0.7182307692307692,"block_number":1,"trial_number":25},{"rt":null,"stimulus":"<div style=\"font-size:60px;\">+</div>","response":null,"screen":"fixation","trial_type":"html-keyboard-response","trial_index":55,"time_elapsed":40387,"internal_node_id":"0.0-3.0-2.0-0.25","participant_id":"s3q96vsg9s","trial_duration":609},{"rt":369,"stimulus":"stimuli/Delboeuf_str0_diff0.564538.png","response":"arrowleft","screen":"Trial","block":"Delboeuf","correct_response":"arrowleft","trial_type":"image-keyboard-response","trial_index":56,"time_elapsed":40757,"internal_node_id":"0.0-3.0-2.0-1.25","participant_id":"s3q96vsg9s","prestimulus_duration":613,"correct":true,"type":"Delboeuf","illusion_strength":0,"illusion_difference":0.5645384615384615,"block_number":1,"trial_number":26},{"rt":null,"stimulus":"<div style=\"font-size:60px;\">+</div>","response":null,"screen":"fixation","trial_type":"html-keyboard-response","trial_index":57,"time_elapsed":41309,"internal_node_id":"0.0-3.0-2.0-0.26","participant_id":"s3q96vsg9s","trial_duration":545},{"rt":458,"stimulus":"stimuli/Delboeuf_str0_diff0.513308.png","response":"arrowleft","screen":"Trial","block":"Delboeuf","correct_response":"arrowleft","trial_type":"image-keyboard-response","trial_index":58,"time_elapsed":41771,"internal_node_id":"0.0-3.0-2.0-1.26","participant_id":"s3q96vsg9s","prestimulus_duration":552,"correct":true,"type":"Delboeuf","illusion_strength":0,"illusion_difference":0.5133076923076924,"block_number":1,"trial_number":27},{"rt":null,"stimulus":"<div style=\"font-size:60px;\">+</div>","response":null,"screen":"fixation","trial_type":"html-keyboard-response","trial_index":59,"time_elapsed":42603,"internal_node_id":"0.0-3.0-2.0-0.27","participant_id":"s3q96vsg9s","trial_duration":828},{"rt":351,"stimulus":"stimuli/Delboeuf_str0_diff0.257154.png","response":"arrowright","screen":"Trial","block":"Delboeuf","correct_response":"arrowleft","trial_type":"image-keyboard-response","trial_index":60,"time_elapsed":42956,"internal_node_id":"0.0-3.0-2.0-1.27","participant_id":"s3q96vsg9s","prestimulus_duration":832,"correct":false,"type":"Delboeuf","illusion_strength":0,"illusion_difference":0.2571538461538462,"block_number":1,"trial_number":28},{"rt":null,"stimulus":"<div style=\"font-size:60px;\">+</div>","response":null,"screen":"fixation","trial_type":"html-keyboard-response","trial_index":61,"time_elapsed":43476,"internal_node_id":"0.0-3.0-2.0-0.28","participant_id":"s3q96vsg9s","trial_duration":512},{"rt":516,"stimulus":"stimuli/Delboeuf_str0_diff0.129077.png","response":"arrowright","screen":"Trial","block":"Delboeuf","correct_response":"arrowleft","trial_type":"image-keyboard-response","trial_index":62,"time_elapsed":43996,"internal_node_id":"0.0-3.0-2.0-1.28","participant_id":"s3q96vsg9s","prestimulus_duration":520,"correct":false,"type":"Delboeuf","illusion_strength":0,"illusion_difference":0.1290769230769231,"block_number":1,"trial_number":29},{"rt":null,"stimulus":"<div style=\"font-size:60px;\">+</div>","response":null,"screen":"fixation","trial_type":"html-keyboard-response","trial_index":63,"time_elapsed":44660,"internal_node_id":"0.0-3.0-2.0-0.29","participant_id":"s3q96vsg9s","trial_duration":657},{"rt":414,"stimulus":"stimuli/Delboeuf_str0_diff-0.667.png","response":"arrowright","screen":"Trial","block":"Delboeuf","correct_response":"arrowright","trial_type":"image-keyboard-response","trial_index":64,"time_elapsed":45077,"internal_node_id":"0.0-3.0-2.0-1.29","participant_id":"s3q96vsg9s","prestimulus_duration":664,"correct":true,"type":"Delboeuf","illusion_strength":0,"illusion_difference":-0.667,"block_number":1,"trial_number":30},{"rt":null,"stimulus":"<div style=\"font-size:60px;\">+</div>","response":null,"screen":"fixation","trial_type":"html-keyboard-response","trial_index":65,"time_elapsed":46034,"internal_node_id":"0.0-3.0-2.0-0.30","participant_id":"s3q96vsg9s","trial_duration":947},{"rt":418,"stimulus":"stimuli/Delboeuf_str0_diff-0.231538.png","response":"arrowright","screen":"Trial","block":"Delboeuf","correct_response":"arrowright","trial_type":"image-keyboard-response","trial_index":66,"time_elapsed":46453,"internal_node_id":"0.0-3.0-2.0-1.30","participant_id":"s3q96vsg9s","prestimulus_duration":957,"correct":true,"type":"Delboeuf","illusion_strength":0,"illusion_difference":-0.23153846153846155,"block_number":1,"trial_number":31},{"rt":null,"stimulus":"<div style=\"font-size:60px;\">+</div>","response":null,"screen":"fixation","trial_type":"html-keyboard-response","trial_index":67,"time_elapsed":47033,"internal_node_id":"0.0-3.0-2.0-0.31","participant_id":"s3q96vsg9s","trial_duration":569},{"rt":505,"stimulus":"stimuli/Delboeuf_str0_diff-0.077846.png","response":"arrowright","screen":"Trial","block":"Delboeuf","correct_response":"arrowright","trial_type":"image-keyboard-response","trial_index":68,"time_elapsed":47542,"internal_node_id":"0.0-3.0-2.0-1.31","participant_id":"s3q96vsg9s","prestimulus_duration":580,"correct":true,"type":"Delboeuf","illusion_strength":0,"illusion_difference":-0.07784615384615384,"block_number":1,"trial_number":32},{"rt":null,"stimulus":"<div style=\"font-size:60px;\">+</div>","response":null,"screen":"fixation","trial_type":"html-keyboard-response","trial_index":69,"time_elapsed":48081,"internal_node_id":"0.0-3.0-2.0-0.32","participant_id":"s3q96vsg9s","trial_duration":531},{"rt":416,"stimulus":"stimuli/Delboeuf_str0_diff0.692615.png","response":"arrowleft","screen":"Trial","block":"Delboeuf","correct_response":"arrowleft","trial_type":"image-keyboard-response","trial_index":70,"time_elapsed":48500,"internal_node_id":"0.0-3.0-2.0-1.32","participant_id":"s3q96vsg9s","prestimulus_duration":539,"correct":true,"type":"Delboeuf","illusion_strength":0,"illusion_difference":0.6926153846153846,"block_number":1,"trial_number":33},{"rt":null,"stimulus":"<div style=\"font-size:60px;\">+</div>","response":null,"screen":"fixation","trial_type":"html-keyboard-response","trial_index":71,"time_elapsed":49453,"internal_node_id":"0.0-3.0-2.0-0.33","participant_id":"s3q96vsg9s","trial_duration":950},{"rt":502,"stimulus":"stimuli/Delboeuf_str0_diff0.205923.png","response":"arrowright","screen":"Trial","block":"Delboeuf","correct_response":"arrowleft","trial_type":"image-keyboard-response","trial_index":72,"time_elapsed":49959,"internal_node_id":"0.0-3.0-2.0-1.33","participant_id":"s3q96vsg9s","prestimulus_duration":953,"correct":false,"type":"Delboeuf","illusion_strength":0,"illusion_difference":0.20592307692307693,"block_number":1,"trial_number":34},{"rt":null,"stimulus":"<div style=\"font-size:60px;\">+</div>","response":null,"screen":"fixation","trial_type":"html-keyboard-response","trial_index":73,"time_elapsed":50958,"internal_node_id":"0.0-3.0-2.0-0.34","participant_id":"s3q96vsg9s","trial_duration":990},{"rt":404,"stimulus":"stimuli/Delboeuf_str0_diff-0.538923.png","response":"arrowright","screen":"Trial","block":"Delboeuf","correct_response":"arrowright","trial_type":"image-keyboard-response","trial_index":74,"time_elapsed":51364,"internal_node_id":"0.0-3.0-2.0-1.34","participant_id":"s3q96vsg9s","prestimulus_duration":999,"correct":true,"type":"Delboeuf","illusion_strength":0,"illusion_difference":-0.538923076923077,"block_number":1,"trial_number":35},{"rt":null,"stimulus":"<div style=\"font-size:60px;\">+</div>","response":null,"screen":"fixation","trial_type":"html-keyboard-response","trial_index":75,"time_elapsed":51958,"internal_node_id":"0.0-3.0-2.0-0.35","participant_id":"s3q96vsg9s","trial_duration":583},{"rt":418,"stimulus":"stimuli/Delboeuf_str0_diff0.743846.png","response":"arrowleft","screen":"Trial","block":"Delboeuf","correct_response":"arrowleft","trial_type":"image-keyboard-response","trial_index":76,"time_elapsed":52380,"internal_node_id":"0.0-3.0-2.0-1.35","participant_id":"s3q96vsg9s","prestimulus_duration":594,"correct":true,"type":"Delboeuf","illusion_strength":0,"illusion_difference":0.7438461538461538,"block_number":1,"trial_number":36},{"rt":null,"stimulus":"<div style=\"font-size:60px;\">+</div>","response":null,"screen":"fixation","trial_type":"html-keyboard-response","trial_index":77,"time_elapsed":52948,"internal_node_id":"0.0-3.0-2.0-0.36","participant_id":"s3q96vsg9s","trial_duration":555},{"rt":399,"stimulus":"stimuli/Delboeuf_str0_diff0.359615.png","response":"arrowleft","screen":"Trial","block":"Delboeuf","correct_response":"arrowleft","trial_type":"image-keyboard-response","trial_index":78,"time_elapsed":53347,"internal_node_id":"0.0-3.0-2.0-1.36","participant_id":"s3q96vsg9s","prestimulus_duration":568,"correct":true,"type":"Delboeuf","illusion_strength":0,"illusion_difference":0.3596153846153846,"block_number":1,"trial_number":37},{"rt":null,"stimulus":"<div style=\"font-size:60px;\">+</div>","response":null,"screen":"fixation","trial_type":"html-keyboard-response","trial_index":79,"time_elapsed":54097,"internal_node_id":"0.0-3.0-2.0-0.37","participant_id":"s3q96vsg9s","trial_duration":746},{"rt":385,"stimulus":"stimuli/Delboeuf_str0_diff-0.564538.png","response":"arrowright","screen":"Trial","block":"Delboeuf","correct_response":"arrowright","trial_type":"image-keyboard-response","trial_index":80,"time_elapsed":54486,"internal_node_id":"0.0-3.0-2.0-1.37","participant_id":"s3q96vsg9s","prestimulus_duration":750,"correct":true,"type":"Delboeuf","illusion_strength":0,"illusion_difference":-0.5645384615384615,"block_number":1,"trial_number":38},{"rt":null,"stimulus":"<div style=\"font-size:60px;\">+</div>","response":null,"screen":"fixation","trial_type":"html-keyboard-response","trial_index":81,"time_elapsed":55035,"internal_node_id":"0.0-3.0-2.0-0.38","participant_id":"s3q96vsg9s","trial_duration":537},{"rt":406,"stimulus":"stimuli/Delboeuf_str0_diff0.436462.png","response":"arrowleft","screen":"Trial","block":"Delboeuf","correct_response":"arrowleft","trial_type":"image-keyboard-response","trial_index":82,"time_elapsed":55446,"internal_node_id":"0.0-3.0-2.0-1.38","participant_id":"s3q96vsg9s","prestimulus_duration":549,"correct":true,"type":"Delboeuf","illusion_strength":0,"illusion_difference":0.43646153846153846,"block_number":1,"trial_number":39},{"rt":null,"stimulus":"<div style=\"font-size:60px;\">+</div>","response":null,"screen":"fixation","trial_type":"html-keyboard-response","trial_index":83,"time_elapsed":56317,"internal_node_id":"0.0-3.0-2.0-0.39","participant_id":"s3q96vsg9s","trial_duration":862},{"rt":365,"stimulus":"stimuli/Delboeuf_str0_diff0.154692.png","response":"arrowleft","screen":"Trial","block":"Delboeuf","correct_response":"arrowleft","trial_type":"image-keyboard-response","trial_index":84,"time_elapsed":56686,"internal_node_id":"0.0-3.0-2.0-1.39","participant_id":"s3q96vsg9s","prestimulus_duration":871,"correct":true,"type":"Delboeuf","illusion_strength":0,"illusion_difference":0.15469230769230768,"block_number":1,"trial_number":40},{"rt":null,"stimulus":"<div style=\"font-size:60px;\">+</div>","response":null,"screen":"fixation","trial_type":"html-keyboard-response","trial_index":85,"time_elapsed":57331,"internal_node_id":"0.0-3.0-2.0-0.40","participant_id":"s3q96vsg9s","trial_duration":634},{"rt":463,"stimulus":"stimuli/Delboeuf_str0_diff-0.180308.png","response":"arrowright","screen":"Trial","block":"Delboeuf","correct_response":"arrowright","trial_type":"image-keyboard-response","trial_index":86,"time_elapsed":57795,"internal_node_id":"0.0-3.0-2.0-1.40","participant_id":"s3q96vsg9s","prestimulus_duration":645,"correct":true,"type":"Delboeuf","illusion_strength":0,"illusion_difference":-0.1803076923076923,"block_number":1,"trial_number":41},{"rt":null,"stimulus":"<div style=\"font-size:60px;\">+</div>","response":null,"screen":"fixation","trial_type":"html-keyboard-response","trial_index":87,"time_elapsed":58687,"internal_node_id":"0.0-3.0-2.0-0.41","participant_id":"s3q96vsg9s","trial_duration":886},{"rt":667,"stimulus":"stimuli/Delboeuf_str0_diff0.052231.png","response":"arrowright","screen":"Trial","block":"Delboeuf","correct_response":"arrowleft","trial_type":"image-keyboard-response","trial_index":88,"time_elapsed":59358,"internal_node_id":"0.0-3.0-2.0-1.41","participant_id":"s3q96vsg9s","prestimulus_duration":892,"correct":false,"type":"Delboeuf","illusion_strength":0,"illusion_difference":0.05223076923076923,"block_number":1,"trial_number":42},{"rt":null,"stimulus":"<div style=\"font-size:60px;\">+</div>","response":null,"screen":"fixation","trial_type":"html-keyboard-response","trial_index":89,"time_elapsed":60241,"internal_node_id":"0.0-3.0-2.0-0.42","participant_id":"s3q96vsg9s","trial_duration":872},{"rt":417,"stimulus":"stimuli/Delboeuf_str0_diff-0.692615.png","response":"arrowright","screen":"Trial","block":"Delboeuf","correct_response":"arrowright","trial_type":"image-keyboard-response","trial_index":90,"time_elapsed":60663,"internal_node_id":"0.0-3.0-2.0-1.42","participant_id":"s3q96vsg9s","prestimulus_duration":883,"correct":true,"type":"Delboeuf","illusion_strength":0,"illusion_difference":-0.6926153846153846,"block_number":1,"trial_number":43},{"rt":null,"stimulus":"<div style=\"font-size:60px;\">+</div>","response":null,"screen":"fixation","trial_type":"html-keyboard-response","trial_index":91,"time_elapsed":61299,"internal_node_id":"0.0-3.0-2.0-0.43","participant_id":"s3q96vsg9s","trial_duration":629},{"rt":429,"stimulus":"stimuli/Delboeuf_str0_diff-0.436462.png","response":"arrowright","screen":"Trial","block":"Delboeuf","correct_response":"arrowright","trial_type":"image-keyboard-response","trial_index":92,"time_elapsed":61732,"internal_node_id":"0.0-3.0-2.0-1.43","participant_id":"s3q96vsg9s","prestimulus_duration":636,"correct":true,"type":"Delboeuf","illusion_strength":0,"illusion_difference":-0.43646153846153846,"block_number":1,"trial_number":44},{"rt":null,"stimulus":"<div style=\"font-size:60px;\">+</div>","response":null,"screen":"fixation","trial_type":"html-keyboard-response","trial_index":93,"time_elapsed":62279,"internal_node_id":"0.0-3.0-2.0-0.44","participant_id":"s3q96vsg9s","trial_duration":534},{"rt":406,"stimulus":"stimuli/Delboeuf_str0_diff0.871923.png","response":"arrowleft","screen":"Trial","block":"Delboeuf","correct_response":"arrowleft","trial_type":"image-keyboard-response","trial_index":94,"time_elapsed":62687,"internal_node_id":"0.0-3.0-2.0-1.44","participant_id":"s3q96vsg9s","prestimulus_duration":547,"correct":true,"type":"Delboeuf","illusion_strength":0,"illusion_difference":0.8719230769230769,"block_number":1,"trial_number":45},{"rt":null,"stimulus":"<div style=\"font-size:60px;\">+</div>","response":null,"screen":"fixation","trial_type":"html-keyboard-response","trial_index":95,"time_elapsed":63677,"internal_node_id":"0.0-3.0-2.0-0.45","participant_id":"s3q96vsg9s","trial_duration":973},{"rt":390,"stimulus":"stimuli/Delboeuf_str0_diff0.846308.png","response":"arrowleft","screen":"Trial","block":"Delboeuf","correct_response":"arrowleft","trial_type":"image-keyboard-response","trial_index":96,"time_elapsed":64072,"internal_node_id":"0.0-3.0-2.0-1.45","participant_id":"s3q96vsg9s","prestimulus_duration":990,"correct":true,"type":"Delboeuf","illusion_strength":0,"illusion_difference":0.8463076923076923,"block_number":1,"trial_number":46},{"rt":null,"stimulus":"<div style=\"font-size:60px;\">+</div>","response":null,"screen":"fixation","trial_type":"html-keyboard-response","trial_index":97,"time_elapsed":64955,"internal_node_id":"0.0-3.0-2.0-0.46","participant_id":"s3q96vsg9s","trial_duration":873},{"rt":405,"stimulus":"stimuli/Delboeuf_str0_diff0.667.png","response":"arrowleft","screen":"Trial","block":"Delboeuf","correct_response":"arrowleft","trial_type":"image-keyboard-response","trial_index":98,"time_elapsed":65364,"internal_node_id":"0.0-3.0-2.0-1.46","participant_id":"s3q96vsg9s","prestimulus_duration":883,"correct":true,"type":"Delboeuf","illusion_strength":0,"illusion_difference":0.667,"block_number":1,"trial_number":47},{"rt":null,"stimulus":"<div style=\"font-size:60px;\">+</div>","response":null,"screen":"fixation","trial_type":"html-keyboard-response","trial_index":99,"time_elapsed":66280,"internal_node_id":"0.0-3.0-2.0-0.47","participant_id":"s3q96vsg9s","trial_duration":900},{"rt":450,"stimulus":"stimuli/Delboeuf_str0_diff0.820692.png","response":"arrowleft","screen":"Trial","block":"Delboeuf","correct_response":"arrowleft","trial_type":"image-keyboard-response","trial_index":100,"time_elapsed":66734,"internal_node_id":"0.0-3.0-2.0-1.47","participant_id":"s3q96vsg9s","prestimulus_duration":916,"correct":true,"type":"Delboeuf","illusion_strength":0,"illusion_difference":0.8206923076923077,"block_number":1,"trial_number":48},{"rt":null,"stimulus":"<div style=\"font-size:60px;\">+</div>","response":null,"screen":"fixation","trial_type":"html-keyboard-response","trial_index":101,"time_elapsed":67619,"internal_node_id":"0.0-3.0-2.0-0.48","participant_id":"s3q96vsg9s","trial_duration":878},{"rt":417,"stimulus":"stimuli/Delboeuf_str0_diff0.462077.png","response":"arrowleft","screen":"Trial","block":"Delboeuf","correct_response":"arrowleft","trial_type":"image-keyboard-response","trial_index":102,"time_elapsed":68038,"internal_node_id":"0.0-3.0-2.0-1.48","participant_id":"s3q96vsg9s","prestimulus_duration":885,"correct":true,"type":"Delboeuf","illusion_strength":0,"illusion_difference":0.4620769230769231,"block_number":1,"trial_number":49},{"rt":null,"stimulus":"<div style=\"font-size:60px;\">+</div>","response":null,"screen":"fixation","trial_type":"html-keyboard-response","trial_index":103,"time_elapsed":68615,"internal_node_id":"0.0-3.0-2.0-0.49","participant_id":"s3q96vsg9s","trial_duration":563},{"rt":476,"stimulus":"stimuli/Delboeuf_str0_diff-0.641385.png","response":"arrowright","screen":"Trial","block":"Delboeuf","correct_response":"arrowright","trial_type":"image-keyboard-response","trial_index":104,"time_elapsed":69094,"internal_node_id":"0.0-3.0-2.0-1.49","participant_id":"s3q96vsg9s","prestimulus_duration":577,"correct":true,"type":"Delboeuf","illusion_strength":0,"illusion_difference":-0.6413846153846154,"block_number":1,"trial_number":50},{"rt":null,"stimulus":"<div style=\"font-size:60px;\">+</div>","response":null,"screen":"fixation","trial_type":"html-keyboard-response","trial_index":105,"time_elapsed":70031,"internal_node_id":"0.0-3.0-2.0-0.50","participant_id":"s3q96vsg9s","trial_duration":933},{"rt":394,"stimulus":"stimuli/Delboeuf_str0_diff0.026615.png","response":"arrowleft","screen":"Trial","block":"Delboeuf","correct_response":"arrowleft","trial_type":"image-keyboard-response","trial_index":106,"time_elapsed":70429,"internal_node_id":"0.0-3.0-2.0-1.50","participant_id":"s3q96vsg9s","prestimulus_duration":937,"correct":true,"type":"Delboeuf","illusion_strength":0,"illusion_difference":0.026615384615384617,"block_number":1,"trial_number":51},{"rt":null,"stimulus":"<div style=\"font-size:60px;\">+</div>","response":null,"screen":"fixation","trial_type":"html-keyboard-response","trial_index":107,"time_elapsed":71122,"internal_node_id":"0.0-3.0-2.0-0.51","participant_id":"s3q96vsg9s","trial_duration":689},{"rt":398,"stimulus":"stimuli/Delboeuf_str0_diff0.795077.png","response":"arrowleft","screen":"Trial","block":"Delboeuf","correct_response":"arrowleft","trial_type":"image-keyboard-response","trial_index":108,"time_elapsed":71524,"internal_node_id":"0.0-3.0-2.0-1.51","participant_id":"s3q96vsg9s","prestimulus_duration":693,"correct":true,"type":"Delboeuf","illusion_strength":0,"illusion_difference":0.7950769230769231,"block_number":1,"trial_number":52},{"rt":null,"stimulus":"<div style=\"font-size:60px;\">+</div>","response":null,"screen":"fixation","trial_type":"html-keyboard-response","trial_index":109,"time_elapsed":72195,"internal_node_id":"0.0-3.0-2.0-0.52","participant_id":"s3q96vsg9s","trial_duration":660},{"rt":413,"stimulus":"stimuli/Delboeuf_str0_diff-0.846308.png","response":"arrowright","screen":"Trial","block":"Delboeuf","correct_response":"arrowright","trial_type":"image-keyboard-response","trial_index":110,"time_elapsed":72612,"internal_node_id":"0.0-3.0-2.0-1.52","participant_id":"s3q96vsg9s","prestimulus_duration":671,"correct":true,"type":"Delboeuf","illusion_strength":0,"illusion_difference":-0.8463076923076923,"block_number":1,"trial_number":53},{"rt":null,"stimulus":"<div style=\"font-size:60px;\">+</div>","response":null,"screen":"fixation","trial_type":"html-keyboard-response","trial_index":111,"time_elapsed":73598,"internal_node_id":"0.0-3.0-2.0-0.53","participant_id":"s3q96vsg9s","trial_duration":982},{"rt":348,"stimulus":"stimuli/Delboeuf_str0_diff0.948769.png","response":"arrowleft","screen":"Trial","block":"Delboeuf","correct_response":"arrowleft","trial_type":"image-keyboard-response","trial_index":112,"time_elapsed":73948,"internal_node_id":"0.0-3.0-2.0-1.53","participant_id":"s3q96vsg9s","prestimulus_duration":986,"correct":true,"type":"Delboeuf","illusion_strength":0,"illusion_difference":0.9487692307692308,"block_number":1,"trial_number":54},{"rt":null,"stimulus":"<div style=\"font-size:60px;\">+</div>","response":null,"screen":"fixation","trial_type":"html-keyboard-response","trial_index":113,"time_elapsed":74941,"internal_node_id":"0.0-3.0-2.0-0.54","participant_id":"s3q96vsg9s","trial_duration":965},{"rt":413,"stimulus":"stimuli/Delboeuf_str0_diff0.641385.png","response":"arrowleft","screen":"Trial","block":"Delboeuf","correct_response":"arrowleft","trial_type":"image-keyboard-response","trial_index":114,"time_elapsed":75355,"internal_node_id":"0.0-3.0-2.0-1.54","participant_id":"s3q96vsg9s","prestimulus_duration":993,"correct":true,"type":"Delboeuf","illusion_strength":0,"illusion_difference":0.6413846153846154,"block_number":1,"trial_number":55},{"rt":null,"stimulus":"<div style=\"font-size:60px;\">+</div>","response":null,"screen":"fixation","trial_type":"html-keyboard-response","trial_index":115,"time_elapsed":76026,"internal_node_id":"0.0-3.0-2.0-0.55","participant_id":"s3q96vsg9s","trial_duration":661},{"rt":424,"stimulus":"stimuli/Delboeuf_str0_diff-0.820692.png","response":"arrowright","screen":"Trial","block":"Delboeuf","correct_response":"arrowright","trial_type":"image-keyboard-response","trial_index":116,"time_elapsed":76451,"internal_node_id":"0.0-3.0-2.0-1.55","participant_id":"s3q96vsg9s","prestimulus_duration":671,"correct":true,"type":"Delboeuf","illusion_strength":0,"illusion_difference":-0.8206923076923077,"block_number":1,"trial_number":56},{"rt":null,"stimulus":"<div style=\"font-size:60px;\">+</div>","response":null,"screen":"fixation","trial_type":"html-keyboard-response","trial_index":117,"time_elapsed":77217,"internal_node_id":"0.0-3.0-2.0-0.56","participant_id":"s3q96vsg9s","trial_duration":764},{"rt":497,"stimulus":"stimuli/Delboeuf_str0_diff-0.615769.png","response":"arrowright","screen":"Trial","block":"Delboeuf","correct_response":"arrowright","trial_type":"image-keyboard-response","trial_index":118,"time_elapsed":77715,"internal_node_id":"0.0-3.0-2.0-1.56","participant_id":"s3q96vsg9s","prestimulus_duration":766,"correct":true,"type":"Delboeuf","illusion_strength":0,"illusion_difference":-0.6157692307692307,"block_number":1,"trial_number":57},{"rt":null,"stimulus":"<div style=\"font-size:60px;\">+</div>","response":null,"screen":"fixation","trial_type":"html-keyboard-response","trial_index":119,"time_elapsed":78623,"internal_node_id":"0.0-3.0-2.0-0.57","participant_id":"s3q96vsg9s","trial_duration":903},{"rt":909,"stimulus":"stimuli/Delboeuf_str0_diff-0.154692.png","response":"arrowright","screen":"Trial","block":"Delboeuf","correct_response":"arrowright","trial_type":"image-keyboard-response","trial_index":120,"time_elapsed":79565,"internal_node_id":"0.0-3.0-2.0-1.57","participant_id":"s3q96vsg9s","prestimulus_duration":908,"correct":true,"type":"Delboeuf","illusion_strength":0,"illusion_difference":-0.15469230769230768,"block_number":1,"trial_number":58},{"rt":null,"stimulus":"<div style=\"font-size:60px;\">+</div>","response":null,"screen":"fixation","trial_type":"html-keyboard-response","trial_index":121,"time_elapsed":80259,"internal_node_id":"0.0-3.0-2.0-0.58","participant_id":"s3q96vsg9s","trial_duration":685},{"rt":743,"stimulus":"stimuli/Delboeuf_str0_diff-0.769462.png","response":"arrowright","screen":"Trial","block":"Delboeuf","correct_response":"arrowright","trial_type":"image-keyboard-response","trial_index":122,"time_elapsed":81005,"internal_node_id":"0.0-3.0-2.0-1.58","participant_id":"s3q96vsg9s","prestimulus_duration":694,"correct":true,"type":"Delboeuf","illusion_strength":0,"illusion_difference":-0.7694615384615385,"block_number":1,"trial_number":59},{"rt":null,"stimulus":"<div style=\"font-size:60px;\">+</div>","response":null,"screen":"fixation","trial_type":"html-keyboard-response","trial_index":123,"time_elapsed":81587,"internal_node_id":"0.0-3.0-2.0-0.59","participant_id":"s3q96vsg9s","trial_duration":568},{"rt":415,"stimulus":"stimuli/Delboeuf_str0_diff0.769462.png","response":"arrowleft","screen":"Trial","block":"Delboeuf","correct_response":"arrowleft","trial_type":"image-keyboard-response","trial_index":124,"time_elapsed":82003,"internal_node_id":"0.0-3.0-2.0-1.59","participant_id":"s3q96vsg9s","prestimulus_duration":582,"correct":true,"type":"Delboeuf","illusion_strength":0,"illusion_difference":0.7694615384615385,"block_number":1,"trial_number":60},{"rt":null,"stimulus":"<div style=\"font-size:60px;\">+</div>","response":null,"screen":"fixation","trial_type":"html-keyboard-response","trial_index":125,"time_elapsed":82712,"internal_node_id":"0.0-3.0-2.0-0.60","participant_id":"s3q96vsg9s","trial_duration":702},{"rt":402,"stimulus":"stimuli/Delboeuf_str0_diff-0.897538.png","response":"arrowright","screen":"Trial","block":"Delboeuf","correct_response":"arrowright","trial_type":"image-keyboard-response","trial_index":126,"time_elapsed":83116,"internal_node_id":"0.0-3.0-2.0-1.60","participant_id":"s3q96vsg9s","prestimulus_duration":709,"correct":true,"type":"Delboeuf","illusion_strength":0,"illusion_difference":-0.8975384615384616,"block_number":1,"trial_number":61},{"rt":null,"stimulus":"<div style=\"font-size:60px;\">+</div>","response":null,"screen":"fixation","trial_type":"html-keyboard-response","trial_index":127,"time_elapsed":83738,"internal_node_id":"0.0-3.0-2.0-0.61","participant_id":"s3q96vsg9s","trial_duration":610},{"rt":571,"stimulus":"stimuli/Delboeuf_str0_diff-0.257154.png","response":"arrowright","screen":"Trial","block":"Delboeuf","correct_response":"arrowright","trial_type":"image-keyboard-response","trial_index":128,"time_elapsed":84309,"internal_node_id":"0.0-3.0-2.0-1.61","participant_id":"s3q96vsg9s","prestimulus_duration":622,"correct":true,"type":"Delboeuf","illusion_strength":0,"illusion_difference":-0.2571538461538462,"block_number":1,"trial_number":62},{"rt":null,"stimulus":"<div style=\"font-size:60px;\">+</div>","response":null,"screen":"fixation","trial_type":"html-keyboard-response","trial_index":129,"time_elapsed":85297,"internal_node_id":"0.0-3.0-2.0-0.62","participant_id":"s3q96vsg9s","trial_duration":979},{"rt":393,"stimulus":"stimuli/Delboeuf_str0_diff-0.462077.png","response":"arrowright","screen":"Trial","block":"Delboeuf","correct_response":"arrowright","trial_type":"image-keyboard-response","trial_index":130,"time_elapsed":85693,"internal_node_id":"0.0-3.0-2.0-1.62","participant_id":"s3q96vsg9s","prestimulus_duration":988,"correct":true,"type":"Delboeuf","illusion_strength":0,"illusion_difference":-0.4620769230769231,"block_number":1,"trial_number":63},{"rt":null,"stimulus":"<div style=\"font-size:60px;\">+</div>","response":null,"screen":"fixation","trial_type":"html-keyboard-response","trial_index":131,"time_elapsed":86355,"internal_node_id":"0.0-3.0-2.0-0.63","participant_id":"s3q96vsg9s","trial_duration":654},{"rt":541,"stimulus":"stimuli/Delboeuf_str0_diff0.103462.png","response":"arrowleft","screen":"Trial","block":"Delboeuf","correct_response":"arrowleft","trial_type":"image-keyboard-response","trial_index":132,"time_elapsed":86900,"internal_node_id":"0.0-3.0-2.0-1.63","participant_id":"s3q96vsg9s","prestimulus_duration":662,"correct":true,"type":"Delboeuf","illusion_strength":0,"illusion_difference":0.10346153846153847,"block_number":1,"trial_number":64},{"rt":null,"stimulus":"<div style=\"font-size:60px;\">+</div>","response":null,"screen":"fixation","trial_type":"html-keyboard-response","trial_index":133,"time_elapsed":87729,"internal_node_id":"0.0-3.0-2.0-0.64","participant_id":"s3q96vsg9s","trial_duration":826},{"rt":425,"stimulus":"stimuli/Delboeuf_str0_diff-0.487692.png","response":"arrowright","screen":"Trial","block":"Delboeuf","correct_response":"arrowright","trial_type":"image-keyboard-response","trial_index":134,"time_elapsed":88158,"internal_node_id":"0.0-3.0-2.0-1.64","participant_id":"s3q96vsg9s","prestimulus_duration":829,"correct":true,"type":"Delboeuf","illusion_strength":0,"illusion_difference":-0.4876923076923077,"block_number":1,"trial_number":65},{"rt":null,"stimulus":"<div style=\"font-size:60px;\">+</div>","response":null,"screen":"fixation","trial_type":"html-keyboard-response","trial_index":135,"time_elapsed":89096,"internal_node_id":"0.0-3.0-2.0-0.65","participant_id":"s3q96vsg9s","trial_duration":934},{"rt":419,"stimulus":"stimuli/Delboeuf_str0_diff0.487692.png","response":"arrowleft","screen":"Trial","block":"Delboeuf","correct_response":"arrowleft","trial_type":"image-keyboard-response","trial_index":136,"time_elapsed":89519,"internal_node_id":"0.0-3.0-2.0-1.65","participant_id":"s3q96vsg9s","prestimulus_duration":938,"correct":true,"type":"Delboeuf","illusion_strength":0,"illusion_difference":0.4876923076923077,"block_number":1,"trial_number":66},{"rt":null,"stimulus":"<div style=\"font-size:60px;\">+</div>","response":null,"screen":"fixation","trial_type":"html-keyboard-response","trial_index":137,"time_elapsed":90525,"internal_node_id":"0.0-3.0-2.0-0.66","participant_id":"s3q96vsg9s","trial_duration":995},{"rt":442,"stimulus":"stimuli/Delboeuf_str0_diff-0.513308.png","response":"arrowright","screen":"Trial","block":"Delboeuf","correct_response":"arrowright","trial_type":"image-keyboard-response","trial_index":138,"time_elapsed":90973,"internal_node_id":"0.0-3.0-2.0-1.66","participant_id":"s3q96vsg9s","prestimulus_duration":1006,"correct":true,"type":"Delboeuf","illusion_strength":0,"illusion_difference":-0.5133076923076924,"block_number":1,"trial_number":67},{"rt":null,"stimulus":"<div style=\"font-size:60px;\">+</div>","response":null,"screen":"fixation","trial_type":"html-keyboard-response","trial_index":139,"time_elapsed":91665,"internal_node_id":"0.0-3.0-2.0-0.67","participant_id":"s3q96vsg9s","trial_duration":686},{"rt":362,"stimulus":"stimuli/Delboeuf_str0_diff-1.0.png","response":"arrowright","screen":"Trial","block":"Delboeuf","correct_response":"arrowright","trial_type":"image-keyboard-response","trial_index":140,"time_elapsed":92030,"internal_node_id":"0.0-3.0-2.0-1.67","participant_id":"s3q96vsg9s","prestimulus_duration":692,"correct":true,"type":"Delboeuf","illusion_strength":0,"illusion_difference":-1,"block_number":1,"trial_number":68},{"rt":null,"stimulus":"<div style=\"font-size:60px;\">+</div>","response":null,"screen":"fixation","trial_type":"html-keyboard-response","trial_index":141,"time_elapsed":92734,"internal_node_id":"0.0-3.0-2.0-0.68","participant_id":"s3q96vsg9s","trial_duration":695},{"rt":563,"stimulus":"stimuli/Delboeuf_str0_diff-0.308385.png","response":"arrowright","screen":"Trial","block":"Delboeuf","correct_response":"arrowright","trial_type":"image-keyboard-response","trial_index":142,"time_elapsed":93300,"internal_node_id":"0.0-3.0-2.0-1.68","participant_id":"s3q96vsg9s","prestimulus_duration":704,"correct":true,"type":"Delboeuf","illusion_strength":0,"illusion_difference":-0.30838461538461537,"block_number":1,"trial_number":69},{"rt":null,"stimulus":"<div style=\"font-size:60px;\">+</div>","response":null,"screen":"fixation","trial_type":"html-keyboard-response","trial_index":143,"time_elapsed":93930,"internal_node_id":"0.0-3.0-2.0-0.69","participant_id":"s3q96vsg9s","trial_duration":626},{"rt":575,"stimulus":"stimuli/Delboeuf_str0_diff-0.103462.png","response":"arrowright","screen":"Trial","block":"Delboeuf","correct_response":"arrowright","trial_type":"image-keyboard-response","trial_index":144,"time_elapsed":94509,"internal_node_id":"0.0-3.0-2.0-1.69","participant_id":"s3q96vsg9s","prestimulus_duration":630,"correct":true,"type":"Delboeuf","illusion_strength":0,"illusion_difference":-0.10346153846153847,"block_number":1,"trial_number":70},{"rt":null,"stimulus":"<div style=\"font-size:60px;\">+</div>","response":null,"screen":"fixation","trial_type":"html-keyboard-response","trial_index":145,"time_elapsed":95391,"internal_node_id":"0.0-3.0-2.0-0.70","participant_id":"s3q96vsg9s","trial_duration":866},{"rt":560,"stimulus":"stimuli/Delboeuf_str0_diff0.308385.png","response":"arrowleft","screen":"Trial","block":"Delboeuf","correct_response":"arrowleft","trial_type":"image-keyboard-response","trial_index":146,"time_elapsed":95952,"internal_node_id":"0.0-3.0-2.0-1.70","participant_id":"s3q96vsg9s","prestimulus_duration":882,"correct":true,"type":"Delboeuf","illusion_strength":0,"illusion_difference":0.30838461538461537,"block_number":1,"trial_number":71},{"rt":null,"stimulus":"<div style=\"font-size:60px;\">+</div>","response":null,"screen":"fixation","trial_type":"html-keyboard-response","trial_index":147,"time_elapsed":96475,"internal_node_id":"0.0-3.0-2.0-0.71","participant_id":"s3q96vsg9s","trial_duration":516},{"rt":441,"stimulus":"stimuli/Delboeuf_str0_diff-0.359615.png","response":"arrowright","screen":"Trial","block":"Delboeuf","correct_response":"arrowright","trial_type":"image-keyboard-response","trial_index":148,"time_elapsed":96918,"internal_node_id":"0.0-3.0-2.0-1.71","participant_id":"s3q96vsg9s","prestimulus_duration":523,"correct":true,"type":"Delboeuf","illusion_strength":0,"illusion_difference":-0.3596153846153846,"block_number":1,"trial_number":72},{"rt":null,"stimulus":"<div style=\"font-size:60px;\">+</div>","response":null,"screen":"fixation","trial_type":"html-keyboard-response","trial_index":149,"time_elapsed":97726,"internal_node_id":"0.0-3.0-2.0-0.72","participant_id":"s3q96vsg9s","trial_duration":795},{"rt":669,"stimulus":"stimuli/Delboeuf_str0_diff0.077846.png","response":"arrowleft","screen":"Trial","block":"Delboeuf","correct_response":"arrowleft","trial_type":"image-keyboard-response","trial_index":150,"time_elapsed":98398,"internal_node_id":"0.0-3.0-2.0-1.72","participant_id":"s3q96vsg9s","prestimulus_duration":808,"correct":true,"type":"Delboeuf","illusion_strength":0,"illusion_difference":0.07784615384615384,"block_number":1,"trial_number":73},{"rt":null,"stimulus":"<div style=\"font-size:60px;\">+</div>","response":null,"screen":"fixation","trial_type":"html-keyboard-response","trial_index":151,"time_elapsed":98924,"internal_node_id":"0.0-3.0-2.0-0.73","participant_id":"s3q96vsg9s","trial_duration":510},{"rt":445,"stimulus":"stimuli/Delboeuf_str0_diff0.897538.png","response":"arrowleft","screen":"Trial","block":"Delboeuf","correct_response":"arrowleft","trial_type":"image-keyboard-response","trial_index":152,"time_elapsed":99374,"internal_node_id":"0.0-3.0-2.0-1.73","participant_id":"s3q96vsg9s","prestimulus_duration":526,"correct":true,"type":"Delboeuf","illusion_strength":0,"illusion_difference":0.8975384615384616,"block_number":1,"trial_number":74},{"rt":null,"stimulus":"<div style=\"font-size:60px;\">+</div>","response":null,"screen":"fixation","trial_type":"html-keyboard-response","trial_index":153,"time_elapsed":100002,"internal_node_id":"0.0-3.0-2.0-0.74","participant_id":"s3q96vsg9s","trial_duration":624},{"rt":478,"stimulus":"stimuli/Delboeuf_str0_diff-0.334.png","response":"arrowright","screen":"Trial","block":"Delboeuf","correct_response":"arrowright","trial_type":"image-keyboard-response","trial_index":154,"time_elapsed":100486,"internal_node_id":"0.0-3.0-2.0-1.74","participant_id":"s3q96vsg9s","prestimulus_duration":628,"correct":true,"type":"Delboeuf","illusion_strength":0,"illusion_difference":-0.334,"block_number":1,"trial_number":75},{"rt":null,"stimulus":"<div style=\"font-size:60px;\">+</div>","response":null,"screen":"fixation","trial_type":"html-keyboard-response","trial_index":155,"time_elapsed":101234,"internal_node_id":"0.0-3.0-2.0-0.75","participant_id":"s3q96vsg9s","trial_duration":730},{"rt":392,"stimulus":"stimuli/Delboeuf_str0_diff0.974385.png","response":"arrowleft","screen":"Trial","block":"Delboeuf","correct_response":"arrowleft","trial_type":"image-keyboard-response","trial_index":156,"time_elapsed":101628,"internal_node_id":"0.0-3.0-2.0-1.75","participant_id":"s3q96vsg9s","prestimulus_duration":748,"correct":true,"type":"Delboeuf","illusion_strength":0,"illusion_difference":0.9743846153846154,"block_number":1,"trial_number":76},{"rt":null,"stimulus":"<div style=\"font-size:60px;\">+</div>","response":null,"screen":"fixation","trial_type":"html-keyboard-response","trial_index":157,"time_elapsed":102187,"internal_node_id":"0.0-3.0-2.0-0.76","participant_id":"s3q96vsg9s","trial_duration":550},{"rt":394,"stimulus":"stimuli/Delboeuf_str0_diff0.615769.png","response":"arrowleft","screen":"Trial","block":"Delboeuf","correct_response":"arrowleft","trial_type":"image-keyboard-response","trial_index":158,"time_elapsed":102582,"internal_node_id":"0.0-3.0-2.0-1.76","participant_id":"s3q96vsg9s","prestimulus_duration":559,"correct":true,"type":"Delboeuf","illusion_strength":0,"illusion_difference":0.6157692307692307,"block_number":1,"trial_number":77},{"rt":null,"stimulus":"<div style=\"font-size:60px;\">+</div>","response":null,"screen":"fixation","trial_type":"html-keyboard-response","trial_index":159,"time_elapsed":103432,"internal_node_id":"0.0-3.0-2.0-0.77","participant_id":"s3q96vsg9s","trial_duration":845},{"rt":419,"stimulus":"stimuli/Delboeuf_str0_diff-0.948769.png","response":"arrowright","screen":"Trial","block":"Delboeuf","correct_response":"arrowright","trial_type":"image-keyboard-response","trial_index":160,"time_elapsed":103852,"internal_node_id":"0.0-3.0-2.0-1.77","participant_id":"s3q96vsg9s","prestimulus_duration":850,"correct":true,"type":"Delboeuf","illusion_strength":0,"illusion_difference":-0.9487692307692308,"block_number":1,"trial_number":78},{"rt":null,"stimulus":"<div style=\"font-size:60px;\">+</div>","response":null,"screen":"fixation","trial_type":"html-keyboard-response","trial_index":161,"time_elapsed":104721,"internal_node_id":"0.0-3.0-2.0-0.78","participant_id":"s3q96vsg9s","trial_duration":854},{"rt":554,"stimulus":"stimuli/Delboeuf_str0_diff0.410846.png","response":"arrowleft","screen":"Trial","block":"Delboeuf","correct_response":"arrowleft","trial_type":"image-keyboard-response","trial_index":162,"time_elapsed":105278,"internal_node_id":"0.0-3.0-2.0-1.78","participant_id":"s3q96vsg9s","prestimulus_duration":869,"correct":true,"type":"Delboeuf","illusion_strength":0,"illusion_difference":0.41084615384615386,"block_number":1,"trial_number":79},{"rt":null,"stimulus":"<div style=\"font-size:60px;\">+</div>","response":null,"screen":"fixation","trial_type":"html-keyboard-response","trial_index":163,"time_elapsed":106059,"internal_node_id":"0.0-3.0-2.0-0.79","participant_id":"s3q96vsg9s","trial_duration":763},{"rt":396,"stimulus":"stimuli/Delboeuf_str0_diff1.0.png","response":"arrowleft","screen":"Trial","block":"Delboeuf","correct_response":"arrowleft","trial_type":"image-keyboard-response","trial_index":164,"time_elapsed":106459,"internal_node_id":"0.0-3.0-2.0-1.79","participant_id":"s3q96vsg9s","prestimulus_duration":781,"correct":true,"type":"Delboeuf","illusion_strength":0,"illusion_difference":1,"block_number":1,"trial_number":80},{"rt":2132,"stimulus":"<p>Great job!</p><p>Can you do better in the next block?</p>","response":0,"screen":"block_results","trial_type":"html-button-response","trial_index":165,"time_elapsed":108595,"internal_node_id":"0.0-3.0-3.0","participant_id":"s3q96vsg9s"},{"success":true,"timeout":false,"failed_images":[],"failed_audio":[],"failed_video":[],"trial_type":"preload","trial_index":166,"time_elapsed":111758,"internal_node_id":"0.0-4.0-0.0","participant_id":"s3q96vsg9s"},{"rt":1685,"stimulus":"<p><b>Part 2</b></p><p>In this part, two horizontal red lines will appear one above the other.</p><p>Your task is to select which <b>line is longer</b> in length as fast as you can, without making errors.</p><p>Press <b>the UP or the DOWN arrow</b> to indicate where is the longer <b>red line.</b></p><div style='float: center'><img src='utils/stimuli_demo/MullerLyer_Demo.png' height='300'></img><p><img src='utils/answer/answer_updown_keyboard.PNG' height='150'></img></p><p class='small'>In this example, the correct answer is the <b>UP arrow</b>.</p></div><p>Are you ready? <b>Press ENTER to start</b></p>","response":"enter","trial_type":"html-keyboard-response","trial_index":167,"time_elapsed":113444,"internal_node_id":"0.0-4.0-1.0","participant_id":"s3q96vsg9s"},{"rt":null,"stimulus":"<div style=\"font-size:60px;\">+</div>","response":null,"screen":"fixation","trial_type":"html-keyboard-response","trial_index":168,"time_elapsed":114541,"internal_node_id":"0.0-4.0-2.0-0.0","participant_id":"s3q96vsg9s","trial_duration":581},{"rt":435,"stimulus":"stimuli/MullerLyer_str0_diff-0.295231.png","response":"arrowdown","screen":"Trial","block":"MullerLyer","correct_response":"arrowdown","trial_type":"image-keyboard-response","trial_index":169,"time_elapsed":114980,"internal_node_id":"0.0-4.0-2.0-1.0","participant_id":"s3q96vsg9s","prestimulus_duration":1097,"correct":true,"type":"MullerLyer","illusion_strength":0,"illusion_difference":-0.29523076923076924,"block_number":2,"trial_number":1},{"rt":null,"stimulus":"<div style=\"font-size:60px;\">+</div>","response":null,"screen":"fixation","trial_type":"html-keyboard-response","trial_index":170,"time_elapsed":115509,"internal_node_id":"0.0-4.0-2.0-0.1","participant_id":"s3q96vsg9s","trial_duration":514},{"rt":392,"stimulus":"stimuli/MullerLyer_str0_diff0.448231.png","response":"arrowup","screen":"Trial","block":"MullerLyer","correct_response":"arrowup","trial_type":"image-keyboard-response","trial_index":171,"time_elapsed":115902,"internal_node_id":"0.0-4.0-2.0-1.1","participant_id":"s3q96vsg9s","prestimulus_duration":529,"correct":true,"type":"MullerLyer","illusion_strength":0,"illusion_difference":0.44823076923076927,"block_number":2,"trial_number":2},{"rt":null,"stimulus":"<div style=\"font-size:60px;\">+</div>","response":null,"screen":"fixation","trial_type":"html-keyboard-response","trial_index":172,"time_elapsed":116814,"internal_node_id":"0.0-4.0-2.0-0.2","participant_id":"s3q96vsg9s","trial_duration":895},{"rt":709,"stimulus":"stimuli/MullerLyer_str0_diff0.071615.png","response":"arrowup","screen":"Trial","block":"MullerLyer","correct_response":"arrowup","trial_type":"image-keyboard-response","trial_index":173,"time_elapsed":117524,"internal_node_id":"0.0-4.0-2.0-1.2","participant_id":"s3q96vsg9s","prestimulus_duration":912,"correct":true,"type":"MullerLyer","illusion_strength":0,"illusion_difference":0.07161538461538462,"block_number":2,"trial_number":3},{"rt":null,"stimulus":"<div style=\"font-size:60px;\">+</div>","response":null,"screen":"fixation","trial_type":"html-keyboard-response","trial_index":174,"time_elapsed":118285,"internal_node_id":"0.0-4.0-2.0-0.3","participant_id":"s3q96vsg9s","trial_duration":750},{"rt":532,"stimulus":"stimuli/MullerLyer_str0_diff0.154.png","response":"arrowup","screen":"Trial","block":"MullerLyer","correct_response":"arrowup","trial_type":"image-keyboard-response","trial_index":175,"time_elapsed":118823,"internal_node_id":"0.0-4.0-2.0-1.3","participant_id":"s3q96vsg9s","prestimulus_duration":761,"correct":true,"type":"MullerLyer","illusion_strength":0,"illusion_difference":0.154,"block_number":2,"trial_number":4},{"rt":null,"stimulus":"<div style=\"font-size:60px;\">+</div>","response":null,"screen":"fixation","trial_type":"html-keyboard-response","trial_index":176,"time_elapsed":119394,"internal_node_id":"0.0-4.0-2.0-0.4","participant_id":"s3q96vsg9s","trial_duration":556},{"rt":511,"stimulus":"stimuli/MullerLyer_str0_diff-0.224615.png","response":"arrowdown","screen":"Trial","block":"MullerLyer","correct_response":"arrowdown","trial_type":"image-keyboard-response","trial_index":177,"time_elapsed":119910,"internal_node_id":"0.0-4.0-2.0-1.4","participant_id":"s3q96vsg9s","prestimulus_duration":571,"correct":true,"type":"MullerLyer","illusion_strength":0,"illusion_difference":-0.22461538461538463,"block_number":2,"trial_number":5},{"rt":null,"stimulus":"<div style=\"font-size:60px;\">+</div>","response":null,"screen":"fixation","trial_type":"html-keyboard-response","trial_index":178,"time_elapsed":120620,"internal_node_id":"0.0-4.0-2.0-0.5","participant_id":"s3q96vsg9s","trial_duration":695},{"rt":500,"stimulus":"stimuli/MullerLyer_str0_diff0.036308.png","response":"arrowup","screen":"Trial","block":"MullerLyer","correct_response":"arrowup","trial_type":"image-keyboard-response","trial_index":179,"time_elapsed":121123,"internal_node_id":"0.0-4.0-2.0-1.5","participant_id":"s3q96vsg9s","prestimulus_duration":710,"correct":true,"type":"MullerLyer","illusion_strength":0,"illusion_difference":0.03630769230769231,"block_number":2,"trial_number":6},{"rt":null,"stimulus":"<div style=\"font-size:60px;\">+</div>","response":null,"screen":"fixation","trial_type":"html-keyboard-response","trial_index":180,"time_elapsed":121769,"internal_node_id":"0.0-4.0-2.0-0.6","participant_id":"s3q96vsg9s","trial_duration":638},{"rt":465,"stimulus":"stimuli/MullerLyer_str0_diff-0.201077.png","response":"arrowdown","screen":"Trial","block":"MullerLyer","correct_response":"arrowdown","trial_type":"image-keyboard-response","trial_index":181,"time_elapsed":122236,"internal_node_id":"0.0-4.0-2.0-1.6","participant_id":"s3q96vsg9s","prestimulus_duration":646,"correct":true,"type":"MullerLyer","illusion_strength":0,"illusion_difference":-0.2010769230769231,"block_number":2,"trial_number":7},{"rt":null,"stimulus":"<div style=\"font-size:60px;\">+</div>","response":null,"screen":"fixation","trial_type":"html-keyboard-response","trial_index":182,"time_elapsed":123036,"internal_node_id":"0.0-4.0-2.0-0.7","participant_id":"s3q96vsg9s","trial_duration":785},{"rt":493,"stimulus":"stimuli/MullerLyer_str0_diff-0.271692.png","response":"arrowdown","screen":"Trial","block":"MullerLyer","correct_response":"arrowdown","trial_type":"image-keyboard-response","trial_index":183,"time_elapsed":123532,"internal_node_id":"0.0-4.0-2.0-1.7","participant_id":"s3q96vsg9s","prestimulus_duration":800,"correct":true,"type":"MullerLyer","illusion_strength":0,"illusion_difference":-0.2716923076923077,"block_number":2,"trial_number":8},{"rt":null,"stimulus":"<div style=\"font-size:60px;\">+</div>","response":null,"screen":"fixation","trial_type":"html-keyboard-response","trial_index":184,"time_elapsed":124405,"internal_node_id":"0.0-4.0-2.0-0.8","participant_id":"s3q96vsg9s","trial_duration":871},{"rt":445,"stimulus":"stimuli/MullerLyer_str0_diff-0.212846.png","response":"arrowdown","screen":"Trial","block":"MullerLyer","correct_response":"arrowdown","trial_type":"image-keyboard-response","trial_index":185,"time_elapsed":124851,"internal_node_id":"0.0-4.0-2.0-1.8","participant_id":"s3q96vsg9s","prestimulus_duration":873,"correct":true,"type":"MullerLyer","illusion_strength":0,"illusion_difference":-0.21284615384615385,"block_number":2,"trial_number":9},{"rt":null,"stimulus":"<div style=\"font-size:60px;\">+</div>","response":null,"screen":"fixation","trial_type":"html-keyboard-response","trial_index":186,"time_elapsed":125689,"internal_node_id":"0.0-4.0-2.0-0.9","participant_id":"s3q96vsg9s","trial_duration":828},{"rt":483,"stimulus":"stimuli/MullerLyer_str0_diff-0.283462.png","response":"arrowdown","screen":"Trial","block":"MullerLyer","correct_response":"arrowdown","trial_type":"image-keyboard-response","trial_index":187,"time_elapsed":126174,"internal_node_id":"0.0-4.0-2.0-1.9","participant_id":"s3q96vsg9s","prestimulus_duration":838,"correct":true,"type":"MullerLyer","illusion_strength":0,"illusion_difference":-0.2834615384615385,"block_number":2,"trial_number":10},{"rt":null,"stimulus":"<div style=\"font-size:60px;\">+</div>","response":null,"screen":"fixation","trial_type":"html-keyboard-response","trial_index":188,"time_elapsed":126825,"internal_node_id":"0.0-4.0-2.0-0.10","participant_id":"s3q96vsg9s","trial_duration":645},{"rt":452,"stimulus":"stimuli/MullerLyer_str0_diff0.46.png","response":"arrowup","screen":"Trial","block":"MullerLyer","correct_response":"arrowup","trial_type":"image-keyboard-response","trial_index":189,"time_elapsed":127278,"internal_node_id":"0.0-4.0-2.0-1.10","participant_id":"s3q96vsg9s","prestimulus_duration":651,"correct":true,"type":"MullerLyer","illusion_strength":0,"illusion_difference":0.46,"block_number":2,"trial_number":11},{"rt":null,"stimulus":"<div style=\"font-size:60px;\">+</div>","response":null,"screen":"fixation","trial_type":"html-keyboard-response","trial_index":190,"time_elapsed":128118,"internal_node_id":"0.0-4.0-2.0-0.11","participant_id":"s3q96vsg9s","trial_duration":827},{"rt":405,"stimulus":"stimuli/MullerLyer_str0_diff0.271692.png","response":"arrowup","screen":"Trial","block":"MullerLyer","correct_response":"arrowup","trial_type":"image-keyboard-response","trial_index":191,"time_elapsed":128526,"internal_node_id":"0.0-4.0-2.0-1.11","participant_id":"s3q96vsg9s","prestimulus_duration":840,"correct":true,"type":"MullerLyer","illusion_strength":0,"illusion_difference":0.2716923076923077,"block_number":2,"trial_number":12},{"rt":null,"stimulus":"<div style=\"font-size:60px;\">+</div>","response":null,"screen":"fixation","trial_type":"html-keyboard-response","trial_index":192,"time_elapsed":129485,"internal_node_id":"0.0-4.0-2.0-0.12","participant_id":"s3q96vsg9s","trial_duration":943},{"rt":476,"stimulus":"stimuli/MullerLyer_str0_diff-0.436462.png","response":"arrowdown","screen":"Trial","block":"MullerLyer","correct_response":"arrowdown","trial_type":"image-keyboard-response","trial_index":193,"time_elapsed":129965,"internal_node_id":"0.0-4.0-2.0-1.12","participant_id":"s3q96vsg9s","prestimulus_duration":959,"correct":true,"type":"MullerLyer","illusion_strength":0,"illusion_difference":-0.43646153846153846,"block_number":2,"trial_number":13},{"rt":null,"stimulus":"<div style=\"font-size:60px;\">+</div>","response":null,"screen":"fixation","trial_type":"html-keyboard-response","trial_index":194,"time_elapsed":130734,"internal_node_id":"0.0-4.0-2.0-0.13","participant_id":"s3q96vsg9s","trial_duration":761},{"rt":460,"stimulus":"stimuli/MullerLyer_str0_diff0.259923.png","response":"arrowup","screen":"Trial","block":"MullerLyer","correct_response":"arrowup","trial_type":"image-keyboard-response","trial_index":195,"time_elapsed":131198,"internal_node_id":"0.0-4.0-2.0-1.13","participant_id":"s3q96vsg9s","prestimulus_duration":769,"correct":true,"type":"MullerLyer","illusion_strength":0,"illusion_difference":0.2599230769230769,"block_number":2,"trial_number":14},{"rt":null,"stimulus":"<div style=\"font-size:60px;\">+</div>","response":null,"screen":"fixation","trial_type":"html-keyboard-response","trial_index":196,"time_elapsed":132025,"internal_node_id":"0.0-4.0-2.0-0.14","participant_id":"s3q96vsg9s","trial_duration":818},{"rt":450,"stimulus":"stimuli/MullerLyer_str0_diff0.307.png","response":"arrowup","screen":"Trial","block":"MullerLyer","correct_response":"arrowup","trial_type":"image-keyboard-response","trial_index":197,"time_elapsed":132476,"internal_node_id":"0.0-4.0-2.0-1.14","participant_id":"s3q96vsg9s","prestimulus_duration":827,"correct":true,"type":"MullerLyer","illusion_strength":0,"illusion_difference":0.307,"block_number":2,"trial_number":15},{"rt":null,"stimulus":"<div style=\"font-size:60px;\">+</div>","response":null,"screen":"fixation","trial_type":"html-keyboard-response","trial_index":198,"time_elapsed":133118,"internal_node_id":"0.0-4.0-2.0-0.15","participant_id":"s3q96vsg9s","trial_duration":639},{"rt":513,"stimulus":"stimuli/MullerLyer_str0_diff-0.001.png","response":"arrowdown","screen":"Trial","block":"MullerLyer","correct_response":"arrowdown","trial_type":"image-keyboard-response","trial_index":199,"time_elapsed":133636,"internal_node_id":"0.0-4.0-2.0-1.15","participant_id":"s3q96vsg9s","prestimulus_duration":642,"correct":true,"type":"MullerLyer","illusion_strength":0,"illusion_difference":-0.001,"block_number":2,"trial_number":16},{"rt":null,"stimulus":"<div style=\"font-size:60px;\">+</div>","response":null,"screen":"fixation","trial_type":"html-keyboard-response","trial_index":200,"time_elapsed":134493,"internal_node_id":"0.0-4.0-2.0-0.16","participant_id":"s3q96vsg9s","trial_duration":845},{"rt":717,"stimulus":"stimuli/MullerLyer_str0_diff0.118692.png","response":"arrowup","screen":"Trial","block":"MullerLyer","correct_response":"arrowup","trial_type":"image-keyboard-response","trial_index":201,"time_elapsed":135220,"internal_node_id":"0.0-4.0-2.0-1.16","participant_id":"s3q96vsg9s","prestimulus_duration":857,"correct":true,"type":"MullerLyer","illusion_strength":0,"illusion_difference":0.1186923076923077,"block_number":2,"trial_number":17},{"rt":null,"stimulus":"<div style=\"font-size:60px;\">+</div>","response":null,"screen":"fixation","trial_type":"html-keyboard-response","trial_index":202,"time_elapsed":136220,"internal_node_id":"0.0-4.0-2.0-0.17","participant_id":"s3q96vsg9s","trial_duration":997},{"rt":495,"stimulus":"stimuli/MullerLyer_str0_diff-0.059846.png","response":"arrowdown","screen":"Trial","block":"MullerLyer","correct_response":"arrowdown","trial_type":"image-keyboard-response","trial_index":203,"time_elapsed":136716,"internal_node_id":"0.0-4.0-2.0-1.17","participant_id":"s3q96vsg9s","prestimulus_duration":1000,"correct":true,"type":"MullerLyer","illusion_strength":0,"illusion_difference":-0.05984615384615385,"block_number":2,"trial_number":18},{"rt":null,"stimulus":"<div style=\"font-size:60px;\">+</div>","response":null,"screen":"fixation","trial_type":"html-keyboard-response","trial_index":204,"time_elapsed":137401,"internal_node_id":"0.0-4.0-2.0-0.18","participant_id":"s3q96vsg9s","trial_duration":670},{"rt":699,"stimulus":"stimuli/MullerLyer_str0_diff-0.012769.png","response":"arrowdown","screen":"Trial","block":"MullerLyer","correct_response":"arrowdown","trial_type":"image-keyboard-response","trial_index":205,"time_elapsed":138108,"internal_node_id":"0.0-4.0-2.0-1.18","participant_id":"s3q96vsg9s","prestimulus_duration":685,"correct":true,"type":"MullerLyer","illusion_strength":0,"illusion_difference":-0.012769230769230769,"block_number":2,"trial_number":19},{"rt":null,"stimulus":"<div style=\"font-size:60px;\">+</div>","response":null,"screen":"fixation","trial_type":"html-keyboard-response","trial_index":206,"time_elapsed":138809,"internal_node_id":"0.0-4.0-2.0-0.19","participant_id":"s3q96vsg9s","trial_duration":698},{"rt":584,"stimulus":"stimuli/MullerLyer_str0_diff-0.048077.png","response":"arrowdown","screen":"Trial","block":"MullerLyer","correct_response":"arrowdown","trial_type":"image-keyboard-response","trial_index":207,"time_elapsed":139395,"internal_node_id":"0.0-4.0-2.0-1.19","participant_id":"s3q96vsg9s","prestimulus_duration":701,"correct":true,"type":"MullerLyer","illusion_strength":0,"illusion_difference":-0.04807692307692308,"block_number":2,"trial_number":20},{"rt":null,"stimulus":"<div style=\"font-size:60px;\">+</div>","response":null,"screen":"fixation","trial_type":"html-keyboard-response","trial_index":208,"time_elapsed":139989,"internal_node_id":"0.0-4.0-2.0-0.20","participant_id":"s3q96vsg9s","trial_duration":587},{"rt":437,"stimulus":"stimuli/MullerLyer_str0_diff0.436462.png","response":"arrowup","screen":"Trial","block":"MullerLyer","correct_response":"arrowup","trial_type":"image-keyboard-response","trial_index":209,"time_elapsed":140430,"internal_node_id":"0.0-4.0-2.0-1.20","participant_id":"s3q96vsg9s","prestimulus_duration":594,"correct":true,"type":"MullerLyer","illusion_strength":0,"illusion_difference":0.43646153846153846,"block_number":2,"trial_number":21},{"rt":null,"stimulus":"<div style=\"font-size:60px;\">+</div>","response":null,"screen":"fixation","trial_type":"html-keyboard-response","trial_index":210,"time_elapsed":141405,"internal_node_id":"0.0-4.0-2.0-0.21","participant_id":"s3q96vsg9s","trial_duration":965},{"rt":414,"stimulus":"stimuli/MullerLyer_str0_diff-0.377615.png","response":"arrowdown","screen":"Trial","block":"MullerLyer","correct_response":"arrowdown","trial_type":"image-keyboard-response","trial_index":211,"time_elapsed":141820,"internal_node_id":"0.0-4.0-2.0-1.21","participant_id":"s3q96vsg9s","prestimulus_duration":975,"correct":true,"type":"MullerLyer","illusion_strength":0,"illusion_difference":-0.37761538461538463,"block_number":2,"trial_number":22},{"rt":null,"stimulus":"<div style=\"font-size:60px;\">+</div>","response":null,"screen":"fixation","trial_type":"html-keyboard-response","trial_index":212,"time_elapsed":142461,"internal_node_id":"0.0-4.0-2.0-0.22","participant_id":"s3q96vsg9s","trial_duration":640},{"rt":469,"stimulus":"stimuli/MullerLyer_str0_diff0.342308.png","response":"arrowup","screen":"Trial","block":"MullerLyer","correct_response":"arrowup","trial_type":"image-keyboard-response","trial_index":213,"time_elapsed":142932,"internal_node_id":"0.0-4.0-2.0-1.22","participant_id":"s3q96vsg9s","prestimulus_duration":641,"correct":true,"type":"MullerLyer","illusion_strength":0,"illusion_difference":0.3423076923076923,"block_number":2,"trial_number":23},{"rt":null,"stimulus":"<div style=\"font-size:60px;\">+</div>","response":null,"screen":"fixation","trial_type":"html-keyboard-response","trial_index":214,"time_elapsed":143832,"internal_node_id":"0.0-4.0-2.0-0.23","participant_id":"s3q96vsg9s","trial_duration":885},{"rt":436,"stimulus":"stimuli/MullerLyer_str0_diff0.401154.png","response":"arrowup","screen":"Trial","block":"MullerLyer","correct_response":"arrowup","trial_type":"image-keyboard-response","trial_index":215,"time_elapsed":144271,"internal_node_id":"0.0-4.0-2.0-1.23","participant_id":"s3q96vsg9s","prestimulus_duration":900,"correct":true,"type":"MullerLyer","illusion_strength":0,"illusion_difference":0.4011538461538462,"block_number":2,"trial_number":24},{"rt":null,"stimulus":"<div style=\"font-size:60px;\">+</div>","response":null,"screen":"fixation","trial_type":"html-keyboard-response","trial_index":216,"time_elapsed":145097,"internal_node_id":"0.0-4.0-2.0-0.24","participant_id":"s3q96vsg9s","trial_duration":812},{"rt":539,"stimulus":"stimuli/MullerLyer_str0_diff-0.142231.png","response":"arrowdown","screen":"Trial","block":"MullerLyer","correct_response":"arrowdown","trial_type":"image-keyboard-response","trial_index":217,"time_elapsed":145639,"internal_node_id":"0.0-4.0-2.0-1.24","participant_id":"s3q96vsg9s","prestimulus_duration":826,"correct":true,"type":"MullerLyer","illusion_strength":0,"illusion_difference":-0.14223076923076924,"block_number":2,"trial_number":25},{"rt":null,"stimulus":"<div style=\"font-size:60px;\">+</div>","response":null,"screen":"fixation","trial_type":"html-keyboard-response","trial_index":218,"time_elapsed":146627,"internal_node_id":"0.0-4.0-2.0-0.25","participant_id":"s3q96vsg9s","trial_duration":977},{"rt":535,"stimulus":"stimuli/MullerLyer_str0_diff0.365846.png","response":"arrowup","screen":"Trial","block":"MullerLyer","correct_response":"arrowup","trial_type":"image-keyboard-response","trial_index":219,"time_elapsed":147163,"internal_node_id":"0.0-4.0-2.0-1.25","participant_id":"s3q96vsg9s","prestimulus_duration":988,"correct":true,"type":"MullerLyer","illusion_strength":0,"illusion_difference":0.3658461538461539,"block_number":2,"trial_number":26},{"rt":null,"stimulus":"<div style=\"font-size:60px;\">+</div>","response":null,"screen":"fixation","trial_type":"html-keyboard-response","trial_index":220,"time_elapsed":147919,"internal_node_id":"0.0-4.0-2.0-0.26","participant_id":"s3q96vsg9s","trial_duration":750},{"rt":517,"stimulus":"stimuli/MullerLyer_str0_diff-0.130462.png","response":"arrowdown","screen":"Trial","block":"MullerLyer","correct_response":"arrowdown","trial_type":"image-keyboard-response","trial_index":221,"time_elapsed":148438,"internal_node_id":"0.0-4.0-2.0-1.26","participant_id":"s3q96vsg9s","prestimulus_duration":756,"correct":true,"type":"MullerLyer","illusion_strength":0,"illusion_difference":-0.13046153846153846,"block_number":2,"trial_number":27},{"rt":null,"stimulus":"<div style=\"font-size:60px;\">+</div>","response":null,"screen":"fixation","trial_type":"html-keyboard-response","trial_index":222,"time_elapsed":149195,"internal_node_id":"0.0-4.0-2.0-0.27","participant_id":"s3q96vsg9s","trial_duration":742},{"rt":488,"stimulus":"stimuli/MullerLyer_str0_diff-0.412923.png","response":"arrowdown","screen":"Trial","block":"MullerLyer","correct_response":"arrowdown","trial_type":"image-keyboard-response","trial_index":223,"time_elapsed":149711,"internal_node_id":"0.0-4.0-2.0-1.27","participant_id":"s3q96vsg9s","prestimulus_duration":757,"correct":true,"type":"MullerLyer","illusion_strength":0,"illusion_difference":-0.41292307692307695,"block_number":2,"trial_number":28},{"rt":null,"stimulus":"<div style=\"font-size:60px;\">+</div>","response":null,"screen":"fixation","trial_type":"html-keyboard-response","trial_index":224,"time_elapsed":150289,"internal_node_id":"0.0-4.0-2.0-0.28","participant_id":"s3q96vsg9s","trial_duration":573},{"rt":499,"stimulus":"stimuli/MullerLyer_str0_diff-0.071615.png","response":"arrowup","screen":"Trial","block":"MullerLyer","correct_response":"arrowdown","trial_type":"image-keyboard-response","trial_index":225,"time_elapsed":150790,"internal_node_id":"0.0-4.0-2.0-1.28","participant_id":"s3q96vsg9s","prestimulus_duration":578,"correct":false,"type":"MullerLyer","illusion_strength":0,"illusion_difference":-0.07161538461538462,"block_number":2,"trial_number":29},{"rt":null,"stimulus":"<div style=\"font-size:60px;\">+</div>","response":null,"screen":"fixation","trial_type":"html-keyboard-response","trial_index":226,"time_elapsed":151483,"internal_node_id":"0.0-4.0-2.0-0.29","participant_id":"s3q96vsg9s","trial_duration":690},{"rt":399,"stimulus":"stimuli/MullerLyer_str0_diff-0.236385.png","response":"arrowdown","screen":"Trial","block":"MullerLyer","correct_response":"arrowdown","trial_type":"image-keyboard-response","trial_index":227,"time_elapsed":151886,"internal_node_id":"0.0-4.0-2.0-1.29","participant_id":"s3q96vsg9s","prestimulus_duration":693,"correct":true,"type":"MullerLyer","illusion_strength":0,"illusion_difference":-0.2363846153846154,"block_number":2,"trial_number":30},{"rt":null,"stimulus":"<div style=\"font-size:60px;\">+</div>","response":null,"screen":"fixation","trial_type":"html-keyboard-response","trial_index":228,"time_elapsed":152744,"internal_node_id":"0.0-4.0-2.0-0.30","participant_id":"s3q96vsg9s","trial_duration":853},{"rt":442,"stimulus":"stimuli/MullerLyer_str0_diff0.354077.png","response":"arrowup","screen":"Trial","block":"MullerLyer","correct_response":"arrowup","trial_type":"image-keyboard-response","trial_index":229,"time_elapsed":153190,"internal_node_id":"0.0-4.0-2.0-1.30","participant_id":"s3q96vsg9s","prestimulus_duration":858,"correct":true,"type":"MullerLyer","illusion_strength":0,"illusion_difference":0.35407692307692307,"block_number":2,"trial_number":31},{"rt":null,"stimulus":"<div style=\"font-size:60px;\">+</div>","response":null,"screen":"fixation","trial_type":"html-keyboard-response","trial_index":230,"time_elapsed":153992,"internal_node_id":"0.0-4.0-2.0-0.31","participant_id":"s3q96vsg9s","trial_duration":792},{"rt":556,"stimulus":"stimuli/MullerLyer_str0_diff0.130462.png","response":"arrowup","screen":"Trial","block":"MullerLyer","correct_response":"arrowup","trial_type":"image-keyboard-response","trial_index":231,"time_elapsed":154552,"internal_node_id":"0.0-4.0-2.0-1.31","participant_id":"s3q96vsg9s","prestimulus_duration":802,"correct":true,"type":"MullerLyer","illusion_strength":0,"illusion_difference":0.13046153846153846,"block_number":2,"trial_number":32},{"rt":null,"stimulus":"<div style=\"font-size:60px;\">+</div>","response":null,"screen":"fixation","trial_type":"html-keyboard-response","trial_index":232,"time_elapsed":155234,"internal_node_id":"0.0-4.0-2.0-0.32","participant_id":"s3q96vsg9s","trial_duration":673},{"rt":499,"stimulus":"stimuli/MullerLyer_str0_diff0.048077.png","response":"arrowup","screen":"Trial","block":"MullerLyer","correct_response":"arrowup","trial_type":"image-keyboard-response","trial_index":233,"time_elapsed":155734,"internal_node_id":"0.0-4.0-2.0-1.32","participant_id":"s3q96vsg9s","prestimulus_duration":682,"correct":true,"type":"MullerLyer","illusion_strength":0,"illusion_difference":0.04807692307692308,"block_number":2,"trial_number":33},{"rt":null,"stimulus":"<div style=\"font-size:60px;\">+</div>","response":null,"screen":"fixation","trial_type":"html-keyboard-response","trial_index":234,"time_elapsed":156340,"internal_node_id":"0.0-4.0-2.0-0.33","participant_id":"s3q96vsg9s","trial_duration":602},{"rt":448,"stimulus":"stimuli/MullerLyer_str0_diff-0.036308.png","response":"arrowdown","screen":"Trial","block":"MullerLyer","correct_response":"arrowdown","trial_type":"image-keyboard-response","trial_index":235,"time_elapsed":156790,"internal_node_id":"0.0-4.0-2.0-1.33","participant_id":"s3q96vsg9s","prestimulus_duration":606,"correct":true,"type":"MullerLyer","illusion_strength":0,"illusion_difference":-0.03630769230769231,"block_number":2,"trial_number":34},{"rt":null,"stimulus":"<div style=\"font-size:60px;\">+</div>","response":null,"screen":"fixation","trial_type":"html-keyboard-response","trial_index":236,"time_elapsed":157571,"internal_node_id":"0.0-4.0-2.0-0.34","participant_id":"s3q96vsg9s","trial_duration":772},{"rt":426,"stimulus":"stimuli/MullerLyer_str0_diff-0.259923.png","response":"arrowdown","screen":"Trial","block":"MullerLyer","correct_response":"arrowdown","trial_type":"image-keyboard-response","trial_index":237,"time_elapsed":157999,"internal_node_id":"0.0-4.0-2.0-1.34","participant_id":"s3q96vsg9s","prestimulus_duration":781,"correct":true,"type":"MullerLyer","illusion_strength":0,"illusion_difference":-0.2599230769230769,"block_number":2,"trial_number":35},{"rt":null,"stimulus":"<div style=\"font-size:60px;\">+</div>","response":null,"screen":"fixation","trial_type":"html-keyboard-response","trial_index":238,"time_elapsed":158865,"internal_node_id":"0.0-4.0-2.0-0.35","participant_id":"s3q96vsg9s","trial_duration":856},{"rt":416,"stimulus":"stimuli/MullerLyer_str0_diff-0.448231.png","response":"arrowdown","screen":"Trial","block":"MullerLyer","correct_response":"arrowdown","trial_type":"image-keyboard-response","trial_index":239,"time_elapsed":159286,"internal_node_id":"0.0-4.0-2.0-1.35","participant_id":"s3q96vsg9s","prestimulus_duration":866,"correct":true,"type":"MullerLyer","illusion_strength":0,"illusion_difference":-0.44823076923076927,"block_number":2,"trial_number":36},{"rt":null,"stimulus":"<div style=\"font-size:60px;\">+</div>","response":null,"screen":"fixation","trial_type":"html-keyboard-response","trial_index":240,"time_elapsed":160219,"internal_node_id":"0.0-4.0-2.0-0.36","participant_id":"s3q96vsg9s","trial_duration":930},{"rt":583,"stimulus":"stimuli/MullerLyer_str0_diff-0.083385.png","response":"arrowdown","screen":"Trial","block":"MullerLyer","correct_response":"arrowdown","trial_type":"image-keyboard-response","trial_index":241,"time_elapsed":160804,"internal_node_id":"0.0-4.0-2.0-1.36","participant_id":"s3q96vsg9s","prestimulus_duration":933,"correct":true,"type":"MullerLyer","illusion_strength":0,"illusion_difference":-0.08338461538461539,"block_number":2,"trial_number":37},{"rt":null,"stimulus":"<div style=\"font-size:60px;\">+</div>","response":null,"screen":"fixation","trial_type":"html-keyboard-response","trial_index":242,"time_elapsed":161619,"internal_node_id":"0.0-4.0-2.0-0.37","participant_id":"s3q96vsg9s","trial_duration":811},{"rt":615,"stimulus":"stimuli/MullerLyer_str0_diff-0.024538.png","response":"arrowdown","screen":"Trial","block":"MullerLyer","correct_response":"arrowdown","trial_type":"image-keyboard-response","trial_index":243,"time_elapsed":162238,"internal_node_id":"0.0-4.0-2.0-1.37","participant_id":"s3q96vsg9s","prestimulus_duration":815,"correct":true,"type":"MullerLyer","illusion_strength":0,"illusion_difference":-0.02453846153846154,"block_number":2,"trial_number":38},{"rt":null,"stimulus":"<div style=\"font-size:60px;\">+</div>","response":null,"screen":"fixation","trial_type":"html-keyboard-response","trial_index":244,"time_elapsed":163222,"internal_node_id":"0.0-4.0-2.0-0.38","participant_id":"s3q96vsg9s","trial_duration":972},{"rt":487,"stimulus":"stimuli/MullerLyer_str0_diff-0.118692.png","response":"arrowdown","screen":"Trial","block":"MullerLyer","correct_response":"arrowdown","trial_type":"image-keyboard-response","trial_index":245,"time_elapsed":163710,"internal_node_id":"0.0-4.0-2.0-1.38","participant_id":"s3q96vsg9s","prestimulus_duration":984,"correct":true,"type":"MullerLyer","illusion_strength":0,"illusion_difference":-0.1186923076923077,"block_number":2,"trial_number":39},{"rt":null,"stimulus":"<div style=\"font-size:60px;\">+</div>","response":null,"screen":"fixation","trial_type":"html-keyboard-response","trial_index":246,"time_elapsed":164451,"internal_node_id":"0.0-4.0-2.0-0.39","participant_id":"s3q96vsg9s","trial_duration":725},{"rt":436,"stimulus":"stimuli/MullerLyer_str0_diff-0.424692.png","response":"arrowdown","screen":"Trial","block":"MullerLyer","correct_response":"arrowdown","trial_type":"image-keyboard-response","trial_index":247,"time_elapsed":164888,"internal_node_id":"0.0-4.0-2.0-1.39","participant_id":"s3q96vsg9s","prestimulus_duration":741,"correct":true,"type":"MullerLyer","illusion_strength":0,"illusion_difference":-0.4246923076923077,"block_number":2,"trial_number":40},{"rt":null,"stimulus":"<div style=\"font-size:60px;\">+</div>","response":null,"screen":"fixation","trial_type":"html-keyboard-response","trial_index":248,"time_elapsed":165777,"internal_node_id":"0.0-4.0-2.0-0.40","participant_id":"s3q96vsg9s","trial_duration":880},{"rt":399,"stimulus":"stimuli/MullerLyer_str0_diff-0.46.png","response":"arrowdown","screen":"Trial","block":"MullerLyer","correct_response":"arrowdown","trial_type":"image-keyboard-response","trial_index":249,"time_elapsed":166180,"internal_node_id":"0.0-4.0-2.0-1.40","participant_id":"s3q96vsg9s","prestimulus_duration":889,"correct":true,"type":"MullerLyer","illusion_strength":0,"illusion_difference":-0.46,"block_number":2,"trial_number":41},{"rt":null,"stimulus":"<div style=\"font-size:60px;\">+</div>","response":null,"screen":"fixation","trial_type":"html-keyboard-response","trial_index":250,"time_elapsed":167085,"internal_node_id":"0.0-4.0-2.0-0.41","participant_id":"s3q96vsg9s","trial_duration":893},{"rt":538,"stimulus":"stimuli/MullerLyer_str0_diff0.095154.png","response":"arrowup","screen":"Trial","block":"MullerLyer","correct_response":"arrowup","trial_type":"image-keyboard-response","trial_index":251,"time_elapsed":167628,"internal_node_id":"0.0-4.0-2.0-1.41","participant_id":"s3q96vsg9s","prestimulus_duration":905,"correct":true,"type":"MullerLyer","illusion_strength":0,"illusion_difference":0.09515384615384616,"block_number":2,"trial_number":42},{"rt":null,"stimulus":"<div style=\"font-size:60px;\">+</div>","response":null,"screen":"fixation","trial_type":"html-keyboard-response","trial_index":252,"time_elapsed":168518,"internal_node_id":"0.0-4.0-2.0-0.42","participant_id":"s3q96vsg9s","trial_duration":879},{"rt":466,"stimulus":"stimuli/MullerLyer_str0_diff-0.307.png","response":"arrowdown","screen":"Trial","block":"MullerLyer","correct_response":"arrowdown","trial_type":"image-keyboard-response","trial_index":253,"time_elapsed":168990,"internal_node_id":"0.0-4.0-2.0-1.42","participant_id":"s3q96vsg9s","prestimulus_duration":890,"correct":true,"type":"MullerLyer","illusion_strength":0,"illusion_difference":-0.307,"block_number":2,"trial_number":43},{"rt":null,"stimulus":"<div style=\"font-size:60px;\">+</div>","response":null,"screen":"fixation","trial_type":"html-keyboard-response","trial_index":254,"time_elapsed":169579,"internal_node_id":"0.0-4.0-2.0-0.43","participant_id":"s3q96vsg9s","trial_duration":576},{"rt":545,"stimulus":"stimuli/MullerLyer_str0_diff0.283462.png","response":"arrowup","screen":"Trial","block":"MullerLyer","correct_response":"arrowup","trial_type":"image-keyboard-response","trial_index":255,"time_elapsed":170127,"internal_node_id":"0.0-4.0-2.0-1.43","participant_id":"s3q96vsg9s","prestimulus_duration":589,"correct":true,"type":"MullerLyer","illusion_strength":0,"illusion_difference":0.2834615384615385,"block_number":2,"trial_number":44},{"rt":null,"stimulus":"<div style=\"font-size:60px;\">+</div>","response":null,"screen":"fixation","trial_type":"html-keyboard-response","trial_index":256,"time_elapsed":170777,"internal_node_id":"0.0-4.0-2.0-0.44","participant_id":"s3q96vsg9s","trial_duration":635},{"rt":417,"stimulus":"stimuli/MullerLyer_str0_diff-0.330538.png","response":"arrowdown","screen":"Trial","block":"MullerLyer","correct_response":"arrowdown","trial_type":"image-keyboard-response","trial_index":257,"time_elapsed":171198,"internal_node_id":"0.0-4.0-2.0-1.44","participant_id":"s3q96vsg9s","prestimulus_duration":650,"correct":true,"type":"MullerLyer","illusion_strength":0,"illusion_difference":-0.33053846153846156,"block_number":2,"trial_number":45},{"rt":null,"stimulus":"<div style=\"font-size:60px;\">+</div>","response":null,"screen":"fixation","trial_type":"html-keyboard-response","trial_index":258,"time_elapsed":171740,"internal_node_id":"0.0-4.0-2.0-0.45","participant_id":"s3q96vsg9s","trial_duration":531},{"rt":481,"stimulus":"stimuli/MullerLyer_str0_diff-0.342308.png","response":"arrowdown","screen":"Trial","block":"MullerLyer","correct_response":"arrowdown","trial_type":"image-keyboard-response","trial_index":259,"time_elapsed":172230,"internal_node_id":"0.0-4.0-2.0-1.45","participant_id":"s3q96vsg9s","prestimulus_duration":542,"correct":true,"type":"MullerLyer","illusion_strength":0,"illusion_difference":-0.3423076923076923,"block_number":2,"trial_number":46},{"rt":null,"stimulus":"<div style=\"font-size:60px;\">+</div>","response":null,"screen":"fixation","trial_type":"html-keyboard-response","trial_index":260,"time_elapsed":173062,"internal_node_id":"0.0-4.0-2.0-0.46","participant_id":"s3q96vsg9s","trial_duration":818},{"rt":469,"stimulus":"stimuli/MullerLyer_str0_diff0.177538.png","response":"arrowup","screen":"Trial","block":"MullerLyer","correct_response":"arrowup","trial_type":"image-keyboard-response","trial_index":261,"time_elapsed":173534,"internal_node_id":"0.0-4.0-2.0-1.46","participant_id":"s3q96vsg9s","prestimulus_duration":832,"correct":true,"type":"MullerLyer","illusion_strength":0,"illusion_difference":0.17753846153846153,"block_number":2,"trial_number":47},{"rt":null,"stimulus":"<div style=\"font-size:60px;\">+</div>","response":null,"screen":"fixation","trial_type":"html-keyboard-response","trial_index":262,"time_elapsed":174293,"internal_node_id":"0.0-4.0-2.0-0.47","participant_id":"s3q96vsg9s","trial_duration":746},{"rt":507,"stimulus":"stimuli/MullerLyer_str0_diff-0.318769.png","response":"arrowdown","screen":"Trial","block":"MullerLyer","correct_response":"arrowdown","trial_type":"image-keyboard-response","trial_index":263,"time_elapsed":174804,"internal_node_id":"0.0-4.0-2.0-1.47","participant_id":"s3q96vsg9s","prestimulus_duration":759,"correct":true,"type":"MullerLyer","illusion_strength":0,"illusion_difference":-0.3187692307692308,"block_number":2,"trial_number":48},{"rt":null,"stimulus":"<div style=\"font-size:60px;\">+</div>","response":null,"screen":"fixation","trial_type":"html-keyboard-response","trial_index":264,"time_elapsed":175339,"internal_node_id":"0.0-4.0-2.0-0.48","participant_id":"s3q96vsg9s","trial_duration":525},{"rt":477,"stimulus":"stimuli/MullerLyer_str0_diff-0.248154.png","response":"arrowdown","screen":"Trial","block":"MullerLyer","correct_response":"arrowdown","trial_type":"image-keyboard-response","trial_index":265,"time_elapsed":175820,"internal_node_id":"0.0-4.0-2.0-1.48","participant_id":"s3q96vsg9s","prestimulus_duration":535,"correct":true,"type":"MullerLyer","illusion_strength":0,"illusion_difference":-0.24815384615384617,"block_number":2,"trial_number":49},{"rt":null,"stimulus":"<div style=\"font-size:60px;\">+</div>","response":null,"screen":"fixation","trial_type":"html-keyboard-response","trial_index":266,"time_elapsed":176631,"internal_node_id":"0.0-4.0-2.0-0.49","participant_id":"s3q96vsg9s","trial_duration":803},{"rt":502,"stimulus":"stimuli/MullerLyer_str0_diff0.059846.png","response":"arrowup","screen":"Trial","block":"MullerLyer","correct_response":"arrowup","trial_type":"image-keyboard-response","trial_index":267,"time_elapsed":177134,"internal_node_id":"0.0-4.0-2.0-1.49","participant_id":"s3q96vsg9s","prestimulus_duration":811,"correct":true,"type":"MullerLyer","illusion_strength":0,"illusion_difference":0.05984615384615385,"block_number":2,"trial_number":50},{"rt":null,"stimulus":"<div style=\"font-size:60px;\">+</div>","response":null,"screen":"fixation","trial_type":"html-keyboard-response","trial_index":268,"time_elapsed":178065,"internal_node_id":"0.0-4.0-2.0-0.50","participant_id":"s3q96vsg9s","trial_duration":923},{"rt":441,"stimulus":"stimuli/MullerLyer_str0_diff-0.365846.png","response":"arrowdown","screen":"Trial","block":"MullerLyer","correct_response":"arrowdown","trial_type":"image-keyboard-response","trial_index":269,"time_elapsed":178510,"internal_node_id":"0.0-4.0-2.0-1.50","participant_id":"s3q96vsg9s","prestimulus_duration":931,"correct":true,"type":"MullerLyer","illusion_strength":0,"illusion_difference":-0.3658461538461539,"block_number":2,"trial_number":51},{"rt":null,"stimulus":"<div style=\"font-size:60px;\">+</div>","response":null,"screen":"fixation","trial_type":"html-keyboard-response","trial_index":270,"time_elapsed":179282,"internal_node_id":"0.0-4.0-2.0-0.51","participant_id":"s3q96vsg9s","trial_duration":756},{"rt":415,"stimulus":"stimuli/MullerLyer_str0_diff0.424692.png","response":"arrowup","screen":"Trial","block":"MullerLyer","correct_response":"arrowup","trial_type":"image-keyboard-response","trial_index":271,"time_elapsed":179700,"internal_node_id":"0.0-4.0-2.0-1.51","participant_id":"s3q96vsg9s","prestimulus_duration":772,"correct":true,"type":"MullerLyer","illusion_strength":0,"illusion_difference":0.4246923076923077,"block_number":2,"trial_number":52},{"rt":null,"stimulus":"<div style=\"font-size:60px;\">+</div>","response":null,"screen":"fixation","trial_type":"html-keyboard-response","trial_index":272,"time_elapsed":180357,"internal_node_id":"0.0-4.0-2.0-0.52","participant_id":"s3q96vsg9s","trial_duration":647},{"rt":500,"stimulus":"stimuli/MullerLyer_str0_diff-0.165769.png","response":"arrowdown","screen":"Trial","block":"MullerLyer","correct_response":"arrowdown","trial_type":"image-keyboard-response","trial_index":273,"time_elapsed":180862,"internal_node_id":"0.0-4.0-2.0-1.52","participant_id":"s3q96vsg9s","prestimulus_duration":657,"correct":true,"type":"MullerLyer","illusion_strength":0,"illusion_difference":-0.16576923076923078,"block_number":2,"trial_number":53},{"rt":null,"stimulus":"<div style=\"font-size:60px;\">+</div>","response":null,"screen":"fixation","trial_type":"html-keyboard-response","trial_index":274,"time_elapsed":181373,"internal_node_id":"0.0-4.0-2.0-0.53","participant_id":"s3q96vs