[
    {
        "success": true,
        "trial_type": "fullscreen",
        "trial_index": 0,
        "time_elapsed": 1588,
        "internal_node_id": "0.0-0.0",
        "participant_id": "zna8j6rta7"
    },
    {
        "success": true,
        "timeout": false,
        "failed_images": [],
        "failed_audio": [],
        "failed_video": [],
        "trial_type": "preload",
        "trial_index": 1,
        "time_elapsed": 1616,
        "internal_node_id": "0.0-1.0",
        "participant_id": "zna8j6rta7"
    },
    {
        "rt": 6932,
        "stimulus": "<p><b>The Illusion Game</b></p><p>In this game of speed and reflex, you will need to make <b>visual judgments</b> of different targets (for instance, which circle is the biggest, or which line is the longest), as <b>quickly</b> and as <b>accurately</b> as possible.</p><p>It can be challenging at times, so you want to rely on your intuition and gut feeling to answer as fast as you can, without making errors.</p><p>A score will be computed based on your speed and accuracy and will be displayed after each block.</p><br><p>Don't worry, we will show you examples of each target before each block.</p><p>Remember, your goal is to be as <b>fast</b> and <b>accurate</b> as possible. Good luck!</p>",
        "response": 0,
        "screen": "general_instructions",
        "trial_type": "html-button-response",
        "trial_index": 2,
        "time_elapsed": 8549,
        "internal_node_id": "0.0-2.0",
        "participant_id": "zna8j6rta7"
    },
    {
        "success": true,
        "timeout": false,
        "failed_images": [],
        "failed_audio": [],
        "failed_video": [],
        "trial_type": "preload",
        "trial_index": 3,
        "time_elapsed": 8552,
        "internal_node_id": "0.0-3.0-0.0",
        "participant_id": "zna8j6rta7"
    },
    {
        "rt": 4287,
        "stimulus": "<p><b>Part 1</b></p><p>In this part, two red circles will appear side by side on the screen.</p><p>Your task is to select which <b>red circle is bigger</b> in size as fast as you can, without making errors.</p><p>Press <b>the LEFT or the RIGHT arrow</b> to indicate which is the bigger <b>red circle.</b></p><div style='float: center'><img src='utils/stimuli_demo/Delboeuf_Demo.png' height='300'></img><p><img src='utils/answer/answer_leftright_keyboard.PNG' height='150'></img></p><p class='small'>In this example, the correct answer is the <b>LEFT arrow</b>.</p></div><p>Are you ready? <b>Press ENTER to start</b></p>",
        "response": "enter",
        "trial_type": "html-keyboard-response",
        "trial_index": 4,
        "time_elapsed": 12841,
        "internal_node_id": "0.0-3.0-1.0",
        "participant_id": "zna8j6rta7"
    },
    {
        "rt": null,
        "stimulus": "<div style=\"font-size:60px;\">+</div>",
        "response": null,
        "screen": "fixation",
        "trial_type": "html-keyboard-response",
        "trial_index": 5,
        "time_elapsed": 14264,
        "internal_node_id": "0.0-3.0-2.0-0.0",
        "participant_id": "zna8j6rta7",
        "trial_duration": 897
    },
    {
        "rt": 414,
        "stimulus": "stimuli/Delboeuf_str0_diff1.0.png",
        "response": "arrowleft",
        "screen": "Trial",
        "block": "Delboeuf",
        "correct_response": "arrowleft",
        "trial_type": "image-keyboard-response",
        "trial_index": 6,
        "time_elapsed": 14685,
        "internal_node_id": "0.0-3.0-2.0-1.0",
        "participant_id": "zna8j6rta7",
        "prestimulus_duration": 1423,
        "correct": true,
        "type": "Delboeuf",
        "illusion_strength": 0,
        "illusion_difference": 1,
        "block_number": 1,
        "trial_number": 1
    },
    {
        "rt": null,
        "stimulus": "<div style=\"font-size:60px;\">+</div>",
        "response": null,
        "screen": "fixation",
        "trial_type": "html-keyboard-response",
        "trial_index": 7,
        "time_elapsed": 15536,
        "internal_node_id": "0.0-3.0-2.0-0.1",
        "participant_id": "zna8j6rta7",
        "trial_duration": 848
    },
    {
        "rt": 421,
        "stimulus": "stimuli/Delboeuf_str0_diff-0.001.png",
        "response": "arrowright",
        "screen": "Trial",
        "block": "Delboeuf",
        "correct_response": "arrowright",
        "trial_type": "image-keyboard-response",
        "trial_index": 8,
        "time_elapsed": 15960,
        "internal_node_id": "0.0-3.0-2.0-1.1",
        "participant_id": "zna8j6rta7",
        "prestimulus_duration": 851,
        "correct": true,
        "type": "Delboeuf",
        "illusion_strength": 0,
        "illusion_difference": -0.001,
        "block_number": 1,
        "trial_number": 2
    },
    {
        "rt": null,
        "stimulus": "<div style=\"font-size:60px;\">+</div>",
        "response": null,
        "screen": "fixation",
        "trial_type": "html-keyboard-response",
        "trial_index": 9,
        "time_elapsed": 16713,
        "internal_node_id": "0.0-3.0-2.0-0.2",
        "participant_id": "zna8j6rta7",
        "trial_duration": 744
    },
    {
        "rt": 343,
        "stimulus": "stimuli/Delboeuf_str0_diff0.001.png",
        "response": "arrowright",
        "screen": "Trial",
        "block": "Delboeuf",
        "correct_response": "arrowleft",
        "trial_type": "image-keyboard-response",
        "trial_index": 10,
        "time_elapsed": 17059,
        "internal_node_id": "0.0-3.0-2.0-1.2",
        "participant_id": "zna8j6rta7",
        "prestimulus_duration": 753,
        "correct": false,
        "type": "Delboeuf",
        "illusion_strength": 0,
        "illusion_difference": 0.001,
        "block_number": 1,
        "trial_number": 3
    },
    {
        "rt": null,
        "stimulus": "<div style=\"font-size:60px;\">+</div>",
        "response": null,
        "screen": "fixation",
        "trial_type": "html-keyboard-response",
        "trial_index": 11,
        "time_elapsed": 18065,
        "internal_node_id": "0.0-3.0-2.0-0.3",
        "participant_id": "zna8j6rta7",
        "trial_duration": 991
    },
    {
        "rt": 342,
        "stimulus": "stimuli/Delboeuf_str0_diff-1.0.png",
        "response": "arrowright",
        "screen": "Trial",
        "block": "Delboeuf",
        "correct_response": "arrowright",
        "trial_type": "image-keyboard-response",
        "trial_index": 12,
        "time_elapsed": 18409,
        "internal_node_id": "0.0-3.0-2.0-1.3",
        "participant_id": "zna8j6rta7",
        "prestimulus_duration": 1006,
        "correct": true,
        "type": "Delboeuf",
        "illusion_strength": 0,
        "illusion_difference": -1,
        "block_number": 1,
        "trial_number": 4
    },
    {
        "rt": 2064,
        "stimulus": "<p>Your score for this illusion is <p style=\"color: black; font-size: 48px; font-weight: bold;\">90</p><hr><p>Can you do better in the next block?</p>",
        "response": 0,
        "screen": "block_results",
        "trial_type": "html-button-response",
        "trial_index": 13,
        "time_elapsed": 20480,
        "internal_node_id": "0.0-3.0-3.0",
        "participant_id": "zna8j6rta7"
    },
    {
        "success": true,
        "timeout": false,
        "failed_images": [],
        "failed_audio": [],
        "failed_video": [],
        "trial_type": "preload",
        "trial_index": 14,
        "time_elapsed": 20483,
        "internal_node_id": "0.0-4.0-0.0",
        "participant_id": "zna8j6rta7"
    },
    {
        "rt": 2566,
        "stimulus": "<p><b>Part 2</b></p><p>In this part, two horizontal red lines will appear one above the other.</p><p>Your task is to select which <b>line is longer</b> in length as fast as you can, without making errors.</p><p>Press <b>the UP or the DOWN arrow</b> to indicate where is the longer <b>red line.</b></p><div style='float: center'><img src='utils/stimuli_demo/MullerLyer_Demo.png' height='300'></img><p><img src='utils/answer/answer_updown_keyboard.PNG' height='150'></img></p><p class='small'>In this example, the correct answer is the <b>UP arrow</b>.</p></div><p>Are you ready? <b>Press ENTER to start</b></p>",
        "response": "enter",
        "trial_type": "html-keyboard-response",
        "trial_index": 15,
        "time_elapsed": 23049,
        "internal_node_id": "0.0-4.0-1.0",
        "participant_id": "zna8j6rta7"
    },
    {
        "rt": null,
        "stimulus": "<div style=\"font-size:60px;\">+</div>",
        "response": null,
        "screen": "fixation",
        "trial_type": "html-keyboard-response",
        "trial_index": 16,
        "time_elapsed": 24406,
        "internal_node_id": "0.0-4.0-2.0-0.0",
        "participant_id": "zna8j6rta7",
        "trial_duration": 839
    },
    {
        "rt": 589,
        "stimulus": "stimuli/MullerLyer_str0_diff-0.46.png",
        "response": "arrowdown",
        "screen": "Trial",
        "block": "MullerLyer",
        "correct_response": "arrowdown",
        "trial_type": "image-keyboard-response",
        "trial_index": 17,
        "time_elapsed": 24997,
        "internal_node_id": "0.0-4.0-2.0-1.0",
        "participant_id": "zna8j6rta7",
        "prestimulus_duration": 1357,
        "correct": true,
        "type": "MullerLyer",
        "illusion_strength": 0,
        "illusion_difference": -0.46,
        "block_number": 2,
        "trial_number": 1
    },
    {
        "rt": null,
        "stimulus": "<div style=\"font-size:60px;\">+</div>",
        "response": null,
        "screen": "fixation",
        "trial_type": "html-keyboard-response",
        "trial_index": 18,
        "time_elapsed": 25507,
        "internal_node_id": "0.0-4.0-2.0-0.1",
        "participant_id": "zna8j6rta7",
        "trial_duration": 508
    },
    {
        "rt": 365,
        "stimulus": "stimuli/MullerLyer_str0_diff-0.001.png",
        "response": "arrowdown",
        "screen": "Trial",
        "block": "MullerLyer",
        "correct_response": "arrowdown",
        "trial_type": "image-keyboard-response",
        "trial_index": 19,
        "time_elapsed": 25874,
        "internal_node_id": "0.0-4.0-2.0-1.1",
        "participant_id": "zna8j6rta7",
        "prestimulus_duration": 510,
        "correct": true,
        "type": "MullerLyer",
        "illusion_strength": 0,
        "illusion_difference": -0.001,
        "block_number": 2,
        "trial_number": 2
    },
    {
        "rt": null,
        "stimulus": "<div style=\"font-size:60px;\">+</div>",
        "response": null,
        "screen": "fixation",
        "trial_type": "html-keyboard-response",
        "trial_index": 20,
        "time_elapsed": 26732,
        "internal_node_id": "0.0-4.0-2.0-0.2",
        "participant_id": "zna8j6rta7",
        "trial_duration": 849
    },
    {
        "rt": 534,
        "stimulus": "stimuli/MullerLyer_str0_diff0.001.png",
        "response": "arrowdown",
        "screen": "Trial",
        "block": "MullerLyer",
        "correct_response": "arrowup",
        "trial_type": "image-keyboard-response",
        "trial_index": 21,
        "time_elapsed": 27268,
        "internal_node_id": "0.0-4.0-2.0-1.2",
        "participant_id": "zna8j6rta7",
        "prestimulus_duration": 858,
        "correct": false,
        "type": "MullerLyer",
        "illusion_strength": 0,
        "illusion_difference": 0.001,
        "block_number": 2,
        "trial_number": 3
    },
    {
        "rt": null,
        "stimulus": "<div style=\"font-size:60px;\">+</div>",
        "response": null,
        "screen": "fixation",
        "trial_type": "html-keyboard-response",
        "trial_index": 22,
        "time_elapsed": 28050,
        "internal_node_id": "0.0-4.0-2.0-0.3",
        "participant_id": "zna8j6rta7",
        "trial_duration": 770
    },
    {
        "rt": 311,
        "stimulus": "stimuli/MullerLyer_str0_diff0.46.png",
        "response": "arrowup",
        "screen": "Trial",
        "block": "MullerLyer",
        "correct_response": "arrowup",
        "trial_type": "image-keyboard-response",
        "trial_index": 23,
        "time_elapsed": 28363,
        "internal_node_id": "0.0-4.0-2.0-1.3",
        "participant_id": "zna8j6rta7",
        "prestimulus_duration": 782,
        "correct": true,
        "type": "MullerLyer",
        "illusion_strength": 0,
        "illusion_difference": 0.46,
        "block_number": 2,
        "trial_number": 4
    },
    {
        "rt": 1720,
        "stimulus": "<p>Your score for this illusion is <p style=\"color: black; font-size: 48px; font-weight: bold;\">89</p><hr><p>Can you do better in the next block?</p>",
        "response": 0,
        "screen": "block_results",
        "trial_type": "html-button-response",
        "trial_index": 24,
        "time_elapsed": 30086,
        "internal_node_id": "0.0-4.0-3.0",
        "participant_id": "zna8j6rta7"
    },
    {
        "success": true,
        "timeout": false,
        "failed_images": [],
        "failed_audio": [],
        "failed_video": [],
        "trial_type": "preload",
        "trial_index": 25,
        "time_elapsed": 30090,
        "internal_node_id": "0.0-5.0-0.0",
        "participant_id": "zna8j6rta7"
    },
    {
        "rt": 2353,
        "stimulus": "<p><b>Part 3</b></p><p>In this part, two horizontal red lines will appear one above the other.</p><p>Your task is to tell <b>the direction</b> towards which the red lines are converging, as fast as you can, and without making errors.</p><p>Press <b>the LEFT or the RIGHT arrow</b> to indicate the <b>direction where the red lines are pointing.</b></p><div style='float: center'><img src='utils/stimuli_demo/Zollner_Demo.png' height='300'></img><p><img src='utils/answer/answer_leftright_keyboard.PNG' height='150'></img></p><p class='small'>In this example, the correct answer is the <b>LEFT arrow</b>.</p></div><p>Are you ready? <b>Press ENTER to start</b></p>",
        "response": "enter",
        "trial_type": "html-keyboard-response",
        "trial_index": 26,
        "time_elapsed": 32443,
        "internal_node_id": "0.0-5.0-1.0",
        "participant_id": "zna8j6rta7"
    },
    {
        "rt": null,
        "stimulus": "<div style=\"font-size:60px;\">+</div>",
        "response": null,
        "screen": "fixation",
        "trial_type": "html-keyboard-response",
        "trial_index": 27,
        "time_elapsed": 33516,
        "internal_node_id": "0.0-5.0-2.0-0.0",
        "participant_id": "zna8j6rta7",
        "trial_duration": 557
    },
    {
        "rt": 1036,
        "stimulus": "stimuli/Zollner_str0_diff-0.001.png",
        "response": "arrowright",
        "screen": "Trial",
        "block": "Zollner",
        "correct_response": "arrowleft",
        "trial_type": "image-keyboard-response",
        "trial_index": 28,
        "time_elapsed": 34553,
        "internal_node_id": "0.0-5.0-2.0-1.0",
        "participant_id": "zna8j6rta7",
        "prestimulus_duration": 1073,
        "correct": false,
        "type": "Zollner",
        "illusion_strength": 0,
        "illusion_difference": -0.001,
        "block_number": 3,
        "trial_number": 1
    },
    {
        "rt": null,
        "stimulus": "<div style=\"font-size:60px;\">+</div>",
        "response": null,
        "screen": "fixation",
        "trial_type": "html-keyboard-response",
        "trial_index": 29,
        "time_elapsed": 35207,
        "internal_node_id": "0.0-5.0-2.0-0.1",
        "participant_id": "zna8j6rta7",
        "trial_duration": 651
    },
    {
        "rt": 359,
        "stimulus": "stimuli/Zollner_str0_diff-4.3.png",
        "response": "arrowright",
        "screen": "Trial",
        "block": "Zollner",
        "correct_response": "arrowleft",
        "trial_type": "image-keyboard-response",
        "trial_index": 30,
        "time_elapsed": 35568,
        "internal_node_id": "0.0-5.0-2.0-1.1",
        "participant_id": "zna8j6rta7",
        "prestimulus_duration": 654,
        "correct": false,
        "type": "Zollner",
        "illusion_strength": 0,
        "illusion_difference": -4.3,
        "block_number": 3,
        "trial_number": 2
    },
    {
        "rt": null,
        "stimulus": "<div style=\"font-size:60px;\">+</div>",
        "response": null,
        "screen": "fixation",
        "trial_type": "html-keyboard-response",
        "trial_index": 31,
        "time_elapsed": 36097,
        "internal_node_id": "0.0-5.0-2.0-0.2",
        "participant_id": "zna8j6rta7",
        "trial_duration": 523
    },
    {
        "rt": 393,
        "stimulus": "stimuli/Zollner_str0_diff4.3.png",
        "response": "arrowleft",
        "screen": "Trial",
        "block": "Zollner",
        "correct_response": "arrowright",
        "trial_type": "image-keyboard-response",
        "trial_index": 32,
        "time_elapsed": 36492,
        "internal_node_id": "0.0-5.0-2.0-1.2",
        "participant_id": "zna8j6rta7",
        "prestimulus_duration": 529,
        "correct": false,
        "type": "Zollner",
        "illusion_strength": 0,
        "illusion_difference": 4.3,
        "block_number": 3,
        "trial_number": 3
    },
    {
        "rt": null,
        "stimulus": "<div style=\"font-size:60px;\">+</div>",
        "response": null,
        "screen": "fixation",
        "trial_type": "html-keyboard-response",
        "trial_index": 33,
        "time_elapsed": 37412,
        "internal_node_id": "0.0-5.0-2.0-0.3",
        "participant_id": "zna8j6rta7",
        "trial_duration": 915
    },
    {
        "rt": 556,
        "stimulus": "stimuli/Zollner_str0_diff0.001.png",
        "response": "arrowright",
        "screen": "Trial",
        "block": "Zollner",
        "correct_response": "arrowright",
        "trial_type": "image-keyboard-response",
        "trial_index": 34,
        "time_elapsed": 37969,
        "internal_node_id": "0.0-5.0-2.0-1.3",
        "participant_id": "zna8j6rta7",
        "prestimulus_duration": 920,
        "correct": true,
        "type": "Zollner",
        "illusion_strength": 0,
        "illusion_difference": 0.001,
        "block_number": 3,
        "trial_number": 4
    },
    {
        "rt": 1296,
        "stimulus": "<p>Your score for this illusion is <p style=\"color: black; font-size: 48px; font-weight: bold;\">56</p><hr><p>Can you do better in the next block?</p>",
        "response": 0,
        "screen": "block_results",
        "trial_type": "html-button-response",
        "trial_index": 35,
        "time_elapsed": 39267,
        "internal_node_id": "0.0-5.0-3.0",
        "participant_id": "zna8j6rta7"
    },
    {
        "success": true,
        "timeout": false,
        "failed_images": [],
        "failed_audio": [],
        "failed_video": [],
        "trial_type": "preload",
        "trial_index": 36,
        "time_elapsed": 39271,
        "internal_node_id": "0.0-6.0-0.0",
        "participant_id": "zna8j6rta7"
    },
    {
        "rt": 697,
        "stimulus": "<p><b>Part 4</b></p><p>In this part, two small grey rectangles will appear one above the other.</p><p>Your task is to select which rectangle is <b>lighter</b> in colour as fast as you can, without making errors.</p><p>Press <b>the UP or the DOWN arrow</b> to indicate which is the <b>lighter rectangle.</b></p><div style='float: center'><img src='utils/stimuli_demo/Contrast_Demo.png' height='300'></img><p><img src='utils/answer/answer_updown_keyboard.PNG' height='150'></img></p><p class='small'>In this example, the correct answer is the <b>UP arrow</b>.</p></div><p>Are you ready? <b>Press ENTER to start</b></p>",
        "response": "enter",
        "trial_type": "html-keyboard-response",
        "trial_index": 37,
        "time_elapsed": 39968,
        "internal_node_id": "0.0-6.0-1.0",
        "participant_id": "zna8j6rta7"
    },
    {
        "rt": null,
        "stimulus": "<div style=\"font-size:60px;\">+</div>",
        "response": null,
        "screen": "fixation",
        "trial_type": "html-keyboard-response",
        "trial_index": 38,
        "time_elapsed": 41157,
        "internal_node_id": "0.0-6.0-2.0-0.0",
        "participant_id": "zna8j6rta7",
        "trial_duration": 674
    },
    {
        "rt": 583,
        "stimulus": "stimuli/Contrast_str0_diff-20.0.png",
        "response": "arrowdown",
        "screen": "Trial",
        "block": "Contrast",
        "correct_response": "arrowdown",
        "trial_type": "image-keyboard-response",
        "trial_index": 39,
        "time_elapsed": 41742,
        "internal_node_id": "0.0-6.0-2.0-1.0",
        "participant_id": "zna8j6rta7",
        "prestimulus_duration": 1189,
        "correct": true,
        "type": "Contrast",
        "illusion_strength": 0,
        "illusion_difference": -20,
        "block_number": 4,
        "trial_number": 1
    },
    {
        "rt": null,
        "stimulus": "<div style=\"font-size:60px;\">+</div>",
        "response": null,
        "screen": "fixation",
        "trial_type": "html-keyboard-response",
        "trial_index": 40,
        "time_elapsed": 42465,
        "internal_node_id": "0.0-6.0-2.0-0.1",
        "participant_id": "zna8j6rta7",
        "trial_duration": 708
    },
    {
        "rt": 466,
        "stimulus": "stimuli/Contrast_str0_diff20.0.png",
        "response": "arrowup",
        "screen": "Trial",
        "block": "Contrast",
        "correct_response": "arrowup",
        "trial_type": "image-keyboard-response",
        "trial_index": 41,
        "time_elapsed": 42932,
        "internal_node_id": "0.0-6.0-2.0-1.1",
        "participant_id": "zna8j6rta7",
        "prestimulus_duration": 723,
        "correct": true,
        "type": "Contrast",
        "illusion_strength": 0,
        "illusion_difference": 20,
        "block_number": 4,
        "trial_number": 2
    },
    {
        "rt": null,
        "stimulus": "<div style=\"font-size:60px;\">+</div>",
        "response": null,
        "screen": "fixation",
        "trial_type": "html-keyboard-response",
        "trial_index": 42,
        "time_elapsed": 43635,
        "internal_node_id": "0.0-6.0-2.0-0.2",
        "participant_id": "zna8j6rta7",
        "trial_duration": 699
    },
    {
        "rt": 429,
        "stimulus": "stimuli/Contrast_str0_diff0.001.png",
        "response": "arrowdown",
        "screen": "Trial",
        "block": "Contrast",
        "correct_response": "arrowup",
        "trial_type": "image-keyboard-response",
        "trial_index": 43,
        "time_elapsed": 44065,
        "internal_node_id": "0.0-6.0-2.0-1.2",
        "participant_id": "zna8j6rta7",
        "prestimulus_duration": 703,
        "correct": false,
        "type": "Contrast",
        "illusion_strength": 0,
        "illusion_difference": 0.001,
        "block_number": 4,
        "trial_number": 3
    },
    {
        "rt": null,
        "stimulus": "<div style=\"font-size:60px;\">+</div>",
        "response": null,
        "screen": "fixation",
        "trial_type": "html-keyboard-response",
        "trial_index": 44,
        "time_elapsed": 44669,
        "internal_node_id": "0.0-6.0-2.0-0.3",
        "participant_id": "zna8j6rta7",
        "trial_duration": 602
    },
    {
        "rt": 447,
        "stimulus": "stimuli/Contrast_str0_diff-0.001.png",
        "response": "arrowdown",
        "screen": "Trial",
        "block": "Contrast",
        "correct_response": "arrowdown",
        "trial_type": "image-keyboard-response",
        "trial_index": 45,
        "time_elapsed": 45118,
        "internal_node_id": "0.0-6.0-2.0-1.3",
        "participant_id": "zna8j6rta7",
        "prestimulus_duration": 604,
        "correct": true,
        "type": "Contrast",
        "illusion_strength": 0,
        "illusion_difference": -0.001,
        "block_number": 4,
        "trial_number": 4
    },
    {
        "rt": 1136,
        "stimulus": "<p>Your score for this illusion is <p style=\"color: black; font-size: 48px; font-weight: bold;\">87</p><hr><p>Can you do better in the next block?</p>",
        "response": 0,
        "screen": "block_results",
        "trial_type": "html-button-response",
        "trial_index": 46,
        "time_elapsed": 46256,
        "internal_node_id": "0.0-6.0-3.0",
        "participant_id": "zna8j6rta7"
    },
    {
        "success": true,
        "timeout": false,
        "failed_images": [],
        "failed_audio": [],
        "failed_video": [],
        "trial_type": "preload",
        "trial_index": 47,
        "time_elapsed": 46260,
        "internal_node_id": "0.0-7.0-0.0",
        "participant_id": "zna8j6rta7"
    },
    {
        "rt": 509,
        "stimulus": "<p><b>Part 5</b></p><p>In this part, one vertical red line will appear in a square.</p><p>Your task is to tell <b>which direction</b> the red line is leaning towards, as fast as you can, and without making errors.</p><p>Press <b>the LEFT or the RIGHT arrow</b> to indicate the <b>direction where the red line is leaning towards.</b></p><div style='float: center'><img src='utils/stimuli_demo/RodFrame_Demo.png' height='300'></img><p><img src='utils/answer/answer_leftright_keyboard.PNG' height='150'></img></p><p class='small'>In this example, the correct answer is the <b>LEFT arrow</b>.</p></div><p>Are you ready? <b>Press ENTER to start</b></p>",
        "response": "enter",
        "trial_type": "html-keyboard-response",
        "trial_index": 48,
        "time_elapsed": 46769,
        "internal_node_id": "0.0-7.0-1.0",
        "participant_id": "zna8j6rta7"
    },
    {
        "rt": null,
        "stimulus": "<div style=\"font-size:60px;\">+</div>",
        "response": null,
        "screen": "fixation",
        "trial_type": "html-keyboard-response",
        "trial_index": 49,
        "time_elapsed": 47966,
        "internal_node_id": "0.0-7.0-2.0-0.0",
        "participant_id": "zna8j6rta7",
        "trial_duration": 680
    },
    {
        "rt": 410,
        "stimulus": "stimuli/RodFrame_str0_diff-7.0.png",
        "response": "arrowright",
        "screen": "Trial",
        "block": "RodFrame",
        "correct_response": "arrowleft",
        "trial_type": "image-keyboard-response",
        "trial_index": 50,
        "time_elapsed": 48378,
        "internal_node_id": "0.0-7.0-2.0-1.0",
        "participant_id": "zna8j6rta7",
        "prestimulus_duration": 1197,
        "correct": false,
        "type": "RodFrame",
        "illusion_strength": 0,
        "illusion_difference": -7,
        "block_number": 5,
        "trial_number": 1
    },
    {
        "rt": null,
        "stimulus": "<div style=\"font-size:60px;\">+</div>",
        "response": null,
        "screen": "fixation",
        "trial_type": "html-keyboard-response",
        "trial_index": 51,
        "time_elapsed": 49261,
        "internal_node_id": "0.0-7.0-2.0-0.1",
        "participant_id": "zna8j6rta7",
        "trial_duration": 872
    },
    {
        "rt": 442,
        "stimulus": "stimuli/RodFrame_str0_diff0.001.png",
        "response": "arrowleft",
        "screen": "Trial",
        "block": "RodFrame",
        "correct_response": "arrowright",
        "trial_type": "image-keyboard-response",
        "trial_index": 52,
        "time_elapsed": 49705,
        "internal_node_id": "0.0-7.0-2.0-1.1",
        "participant_id": "zna8j6rta7",
        "prestimulus_duration": 883,
        "correct": false,
        "type": "RodFrame",
        "illusion_strength": 0,
        "illusion_difference": 0.001,
        "block_number": 5,
        "trial_number": 2
    },
    {
        "rt": null,
        "stimulus": "<div style=\"font-size:60px;\">+</div>",
        "response": null,
        "screen": "fixation",
        "trial_type": "html-keyboard-response",
        "trial_index": 53,
        "time_elapsed": 50664,
        "internal_node_id": "0.0-7.0-2.0-0.2",
        "participant_id": "zna8j6rta7",
        "trial_duration": 957
    },
    {
        "rt": 391,
        "stimulus": "stimuli/RodFrame_str0_diff-0.001.png",
        "response": "arrowright",
        "screen": "Trial",
        "block": "RodFrame",
        "correct_response": "arrowleft",
        "trial_type": "image-keyboard-response",
        "trial_index": 54,
        "time_elapsed": 51056,
        "internal_node_id": "0.0-7.0-2.0-1.2",
        "participant_id": "zna8j6rta7",
        "prestimulus_duration": 959,
        "correct": false,
        "type": "RodFrame",
        "illusion_strength": 0,
        "illusion_difference": -0.001,
        "block_number": 5,
        "trial_number": 3
    },
    {
        "rt": null,
        "stimulus": "<div style=\"font-size:60px;\">+</div>",
        "response": null,
        "screen": "fixation",
        "trial_type": "html-keyboard-response",
        "trial_index": 55,
        "time_elapsed": 51953,
        "internal_node_id": "0.0-7.0-2.0-0.3",
        "participant_id": "zna8j6rta7",
        "trial_duration": 886
    },
    {
        "rt": 326,
        "stimulus": "stimuli/RodFrame_str0_diff7.0.png",
        "response": "arrowleft",
        "screen": "Trial",
        "block": "RodFrame",
        "correct_response": "arrowright",
        "trial_type": "image-keyboard-response",
        "trial_index": 56,
        "time_elapsed": 52281,
        "internal_node_id": "0.0-7.0-2.0-1.3",
        "participant_id": "zna8j6rta7",
        "prestimulus_duration": 897,
        "correct": false,
        "type": "RodFrame",
        "illusion_strength": 0,
        "illusion_difference": 7,
        "block_number": 5,
        "trial_number": 4
    },
    {
        "rt": 2078,
        "stimulus": "<p>Your score for this illusion is <p style=\"color: black; font-size: 48px; font-weight: bold;\">0</p><hr><p>Can you do better in the next block?</p>",
        "response": 0,
        "screen": "block_results",
        "trial_type": "html-button-response",
        "trial_index": 57,
        "time_elapsed": 54360,
        "internal_node_id": "0.0-7.0-3.0",
        "participant_id": "zna8j6rta7"
    },
    {
        "success": true,
        "timeout": false,
        "failed_images": [],
        "failed_audio": [],
        "failed_video": [],
        "trial_type": "preload",
        "trial_index": 58,
        "time_elapsed": 54364,
        "internal_node_id": "0.0-8.0-0.0",
        "participant_id": "zna8j6rta7"
    },
    {
        "rt": 620,
        "stimulus": "<p><b>Part 6</b></p><p>In this part, two parallel red lines will appear, but they are partially hidden by a grey rectangle.</p><p>Your task is to tell if the <b>red line to the right</b> of the rectangle is above or below the line to the left. You need to answer as fast as you can, without making errors.</p><p>Press <b>the UP or the DOWN arrow</b> to indicate whether the <b>right red line is actually above or below the left red line.</b></p><div style='float: center'><img src='utils/stimuli_demo/Poggendorff_Demo.png' height='300'></img><p><img src='utils/answer/answer_updown_keyboard.PNG' height='150'></img></p><p class='small'>In this example, the correct answer is the <b>UP arrow</b>.</p></div><p>Are you ready? <b>Press ENTER to start</b></p>",
        "response": "enter",
        "trial_type": "html-keyboard-response",
        "trial_index": 59,
        "time_elapsed": 54984,
        "internal_node_id": "0.0-8.0-1.0",
        "participant_id": "zna8j6rta7"
    },
    {
        "rt": null,
        "stimulus": "<div style=\"font-size:60px;\">+</div>",
        "response": null,
        "screen": "fixation",
        "trial_type": "html-keyboard-response",
        "trial_index": 60,
        "time_elapsed": 56282,
        "internal_node_id": "0.0-8.0-2.0-0.0",
        "participant_id": "zna8j6rta7",
        "trial_duration": 772
    },
    {
        "rt": 605,
        "stimulus": "stimuli/Poggendorff_str0_diff-0.001.png",
        "response": "arrowdown",
        "screen": "Trial",
        "block": "Poggendorff",
        "correct_response": "arrowdown",
        "trial_type": "image-keyboard-response",
        "trial_index": 61,
        "time_elapsed": 56889,
        "internal_node_id": "0.0-8.0-2.0-1.0",
        "participant_id": "zna8j6rta7",
        "prestimulus_duration": 1298,
        "correct": true,
        "type": "Poggendorff",
        "illusion_strength": 0,
        "illusion_difference": -0.001,
        "block_number": 6,
        "trial_number": 1
    },
    {
        "rt": null,
        "stimulus": "<div style=\"font-size:60px;\">+</div>",
        "response": null,
        "screen": "fixation",
        "trial_type": "html-keyboard-response",
        "trial_index": 62,
        "time_elapsed": 57586,
        "internal_node_id": "0.0-8.0-2.0-0.1",
        "participant_id": "zna8j6rta7",
        "trial_duration": 687
    },
    {
        "rt": 411,
        "stimulus": "stimuli/Poggendorff_str0_diff-0.3.png",
        "response": "arrowdown",
        "screen": "Trial",
        "block": "Poggendorff",
        "correct_response": "arrowdown",
        "trial_type": "image-keyboard-response",
        "trial_index": 63,
        "time_elapsed": 57998,
        "internal_node_id": "0.0-8.0-2.0-1.1",
        "participant_id": "zna8j6rta7",
        "prestimulus_duration": 697,
        "correct": true,
        "type": "Poggendorff",
        "illusion_strength": 0,
        "illusion_difference": -0.3,
        "block_number": 6,
        "trial_number": 2
    },
    {
        "rt": null,
        "stimulus": "<div style=\"font-size:60px;\">+</div>",
        "response": null,
        "screen": "fixation",
        "trial_type": "html-keyboard-response",
        "trial_index": 64,
        "time_elapsed": 58796,
        "internal_node_id": "0.0-8.0-2.0-0.2",
        "participant_id": "zna8j6rta7",
        "trial_duration": 791
    },
    {
        "rt": 361,
        "stimulus": "stimuli/Poggendorff_str0_diff0.3.png",
        "response": "arrowup",
        "screen": "Trial",
        "block": "Poggendorff",
        "correct_response": "arrowup",
        "trial_type": "image-keyboard-response",
        "trial_index": 65,
        "time_elapsed": 59159,
        "internal_node_id": "0.0-8.0-2.0-1.2",
        "participant_id": "zna8j6rta7",
        "prestimulus_duration": 798,
        "correct": true,
        "type": "Poggendorff",
        "illusion_strength": 0,
        "illusion_difference": 0.3,
        "block_number": 6,
        "trial_number": 3
    },
    {
        "rt": null,
        "stimulus": "<div style=\"font-size:60px;\">+</div>",
        "response": null,
        "screen": "fixation",
        "trial_type": "html-keyboard-response",
        "trial_index": 66,
        "time_elapsed": 60032,
        "internal_node_id": "0.0-8.0-2.0-0.3",
        "participant_id": "zna8j6rta7",
        "trial_duration": 847
    },
    {
        "rt": 355,
        "stimulus": "stimuli/Poggendorff_str0_diff0.001.png",
        "response": "arrowdown",
        "screen": "Trial",
        "block": "Poggendorff",
        "correct_response": "arrowup",
        "trial_type": "image-keyboard-response",
        "trial_index": 67,
        "time_elapsed": 60388,
        "internal_node_id": "0.0-8.0-2.0-1.3",
        "participant_id": "zna8j6rta7",
        "prestimulus_duration": 873,
        "correct": false,
        "type": "Poggendorff",
        "illusion_strength": 0,
        "illusion_difference": 0.001,
        "block_number": 6,
        "trial_number": 4
    },
    {
        "rt": 825,
        "stimulus": "<p>Your score for this illusion is <p style=\"color: black; font-size: 48px; font-weight: bold;\">88</p><hr><p>Can you do better in the next block?</p>",
        "response": 0,
        "screen": "block_results",
        "trial_type": "html-button-response",
        "trial_index": 68,
        "time_elapsed": 61215,
        "internal_node_id": "0.0-8.0-3.0",
        "participant_id": "zna8j6rta7"
    },
    {
        "success": true,
        "timeout": false,
        "failed_images": [],
        "failed_audio": [],
        "failed_video": [],
        "trial_type": "preload",
        "trial_index": 69,
        "time_elapsed": 61218,
        "internal_node_id": "0.0-9.0-0.0",
        "participant_id": "zna8j6rta7"
    },
    {
        "rt": 1377,
        "stimulus": "<p><b>Part 7</b></p><p>In this part, two red lines will appear side by side.</p><p>Your task is to tell <b>which line is longer</b> in length as fast as you can, and without making errors.</p><p>Press <b>the LEFT or the RIGHT arrow</b> to indicate which <b>line is the longer one.</b></p><div style='float: center'><img src='utils/stimuli_demo/VerticalHorizontal_Demo.png' height='300'></img><p><img src='utils/answer/answer_leftright_keyboard.PNG' height='150'></img></p><p class='small'>In this example, the correct answer is the <b>LEFT arrow</b>.</p></div><p>Are you ready? <b>Press ENTER to start</b></p>",
        "response": "enter",
        "trial_type": "html-keyboard-response",
        "trial_index": 70,
        "time_elapsed": 62596,
        "internal_node_id": "0.0-9.0-1.0",
        "participant_id": "zna8j6rta7"
    },
    {
        "rt": null,
        "stimulus": "<div style=\"font-size:60px;\">+</div>",
        "response": null,
        "screen": "fixation",
        "trial_type": "html-keyboard-response",
        "trial_index": 71,
        "time_elapsed": 63979,
        "internal_node_id": "0.0-9.0-2.0-0.0",
        "participant_id": "zna8j6rta7",
        "trial_duration": 867
    },
    {
        "rt": 417,
        "stimulus": "stimuli/VerticalHorizontal_str0_diff0.001.png",
        "response": "arrowright",
        "screen": "Trial",
        "block": "VerticalHorizontal",
        "correct_response": "arrowleft",
        "trial_type": "image-keyboard-response",
        "trial_index": 72,
        "time_elapsed": 64398,
        "internal_node_id": "0.0-9.0-2.0-1.0",
        "participant_id": "zna8j6rta7",
        "prestimulus_duration": 1383,
        "correct": false,
        "type": "VerticalHorizontal",
        "illusion_strength": 0,
        "illusion_difference": 0.001,
        "block_number": 7,
        "trial_number": 1
    },
    {
        "rt": null,
        "stimulus": "<div style=\"font-size:60px;\">+</div>",
        "response": null,
        "screen": "fixation",
        "trial_type": "html-keyboard-response",
        "trial_index": 73,
        "time_elapsed": 65312,
        "internal_node_id": "0.0-9.0-2.0-0.1",
        "participant_id": "zna8j6rta7",
        "trial_duration": 911
    },
    {
        "rt": 646,
        "stimulus": "stimuli/VerticalHorizontal_str0_diff-0.25.png",
        "response": "arrowright",
        "screen": "Trial",
        "block": "VerticalHorizontal",
        "correct_response": "arrowright",
        "trial_type": "image-keyboard-response",
        "trial_index": 74,
        "time_elapsed": 65960,
        "internal_node_id": "0.0-9.0-2.0-1.1",
        "participant_id": "zna8j6rta7",
        "prestimulus_duration": 914,
        "correct": true,
        "type": "VerticalHorizontal",
        "illusion_strength": 0,
        "illusion_difference": -0.25,
        "block_number": 7,
        "trial_number": 2
    },
    {
        "rt": null,
        "stimulus": "<div style=\"font-size:60px;\">+</div>",
        "response": null,
        "screen": "fixation",
        "trial_type": "html-keyboard-response",
        "trial_index": 75,
        "time_elapsed": 66658,
        "internal_node_id": "0.0-9.0-2.0-0.2",
        "participant_id": "zna8j6rta7",
        "trial_duration": 686
    },
    {
        "rt": 449,
        "stimulus": "stimuli/VerticalHorizontal_str0_diff0.25.png",
        "response": "arrowleft",
        "screen": "Trial",
        "block": "VerticalHorizontal",
        "correct_response": "arrowleft",
        "trial_type": "image-keyboard-response",
        "trial_index": 76,
        "time_elapsed": 67109,
        "internal_node_id": "0.0-9.0-2.0-1.2",
        "participant_id": "zna8j6rta7",
        "prestimulus_duration": 698,
        "correct": true,
        "type": "VerticalHorizontal",
        "illusion_strength": 0,
        "illusion_difference": 0.25,
        "block_number": 7,
        "trial_number": 3
    },
    {
        "rt": null,
        "stimulus": "<div style=\"font-size:60px;\">+</div>",
        "response": null,
        "screen": "fixation",
        "trial_type": "html-keyboard-response",
        "trial_index": 77,
        "time_elapsed": 67675,
        "internal_node_id": "0.0-9.0-2.0-0.3",
        "participant_id": "zna8j6rta7",
        "trial_duration": 560
    },
    {
        "rt": 499,
        "stimulus": "stimuli/VerticalHorizontal_str0_diff-0.001.png",
        "response": "arrowleft",
        "screen": "Trial",
        "block": "VerticalHorizontal",
        "correct_response": "arrowright",
        "trial_type": "image-keyboard-response",
        "trial_index": 78,
        "time_elapsed": 68175,
        "internal_node_id": "0.0-9.0-2.0-1.3",
        "participant_id": "zna8j6rta7",
        "prestimulus_duration": 566,
        "correct": false,
        "type": "VerticalHorizontal",
        "illusion_strength": 0,
        "illusion_difference": -0.001,
        "block_number": 7,
        "trial_number": 4
    },
    {
        "rt": 1222,
        "stimulus": "<p>Your score for this illusion is <p style=\"color: black; font-size: 48px; font-weight: bold;\">78</p><hr><p>Can you do better in the next block?</p>",
        "response": 0,
        "screen": "block_results",
        "trial_type": "html-button-response",
        "trial_index": 79,
        "time_elapsed": 69399,
        "internal_node_id": "0.0-9.0-3.0",
        "participant_id": "zna8j6rta7"
    },
    {
        "success": true,
        "timeout": false,
        "failed_images": [],
        "failed_audio": [],
        "failed_video": [],
        "trial_type": "preload",
        "trial_index": 80,
        "time_elapsed": 69402,
        "internal_node_id": "0.0-10.0-0.0",
        "participant_id": "zna8j6rta7"
    },
    {
        "rt": 748,
        "stimulus": "<p><b>Part 8</b></p><p>In this part, two vertical grey rectangles will appear side by side.</p><p>Your task is to tell <b>which rectangle is of a lighter color</b>, as fast as you can, and without making errors.</p><p>Press <b>the LEFT or the RIGHT arrow</b> to indicate which <b>side has the lighter grey rectangle.</b></p><div style='float: center'><img src='utils/stimuli_demo/White_Demo.png' height='300'></img><p><img src='utils/answer/answer_leftright_keyboard.PNG' height='150'></img></p><p class='small'>In this example, the correct answer is the <b>LEFT arrow</b>.</p></div><p>Are you ready? <b>Press ENTER to start</b></p>",
        "response": "enter",
        "trial_type": "html-keyboard-response",
        "trial_index": 81,
        "time_elapsed": 70151,
        "internal_node_id": "0.0-10.0-1.0",
        "participant_id": "zna8j6rta7"
    },
    {
        "rt": null,
        "stimulus": "<div style=\"font-size:60px;\">+</div>",
        "response": null,
        "screen": "fixation",
        "trial_type": "html-keyboard-response",
        "trial_index": 82,
        "time_elapsed": 71368,
        "internal_node_id": "0.0-10.0-2.0-0.0",
        "participant_id": "zna8j6rta7",
        "trial_duration": 697
    },
    {
        "rt": 1416,
        "stimulus": "stimuli/White_str0_diff-0.001.png",
        "response": "arrowright",
        "screen": "Trial",
        "block": "White",
        "correct_response": "arrowright",
        "trial_type": "image-keyboard-response",
        "trial_index": 83,
        "time_elapsed": 72785,
        "internal_node_id": "0.0-10.0-2.0-1.0",
        "participant_id": "zna8j6rta7",
        "prestimulus_duration": 1217,
        "correct": true,
        "type": "White",
        "illusion_strength": 0,
        "illusion_difference": -0.001,
        "block_number": 8,
        "trial_number": 1
    },
    {
        "rt": null,
        "stimulus": "<div style=\"font-size:60px;\">+</div>",
        "response": null,
        "screen": "fixation",
        "trial_type": "html-keyboard-response",
        "trial_index": 84,
        "time_elapsed": 73530,
        "internal_node_id": "0.0-10.0-2.0-0.1",
        "participant_id": "zna8j6rta7",
        "trial_duration": 730
    },
    {
        "rt": 282,
        "stimulus": "stimuli/White_str0_diff0.001.png",
        "response": "arrowleft",
        "screen": "Trial",
        "block": "White",
        "correct_response": "arrowleft",
        "trial_type": "image-keyboard-response",
        "trial_index": 85,
        "time_elapsed": 73814,
        "internal_node_id": "0.0-10.0-2.0-1.1",
        "participant_id": "zna8j6rta7",
        "prestimulus_duration": 745,
        "correct": true,
        "type": "White",
        "illusion_strength": 0,
        "illusion_difference": 0.001,
        "block_number": 8,
        "trial_number": 2
    },
    {
        "rt": null,
        "stimulus": "<div style=\"font-size:60px;\">+</div>",
        "response": null,
        "screen": "fixation",
        "trial_type": "html-keyboard-response",
        "trial_index": 86,
        "time_elapsed": 74622,
        "internal_node_id": "0.0-10.0-2.0-0.2",
        "participant_id": "zna8j6rta7",
        "trial_duration": 801
    },
    {
        "rt": 352,
        "stimulus": "stimuli/White_str0_diff-17.0.png",
        "response": "arrowleft",
        "screen": "Trial",
        "block": "White",
        "correct_response": "arrowright",
        "trial_type": "image-keyboard-response",
        "trial_index": 87,
        "time_elapsed": 74976,
        "internal_node_id": "0.0-10.0-2.0-1.2",
        "participant_id": "zna8j6rta7",
        "prestimulus_duration": 808,
        "correct": false,
        "type": "White",
        "illusion_strength": 0,
        "illusion_difference": -17,
        "block_number": 8,
        "trial_number": 3
    },
    {
        "rt": null,
        "stimulus": "<div style=\"font-size:60px;\">+</div>",
        "response": null,
        "screen": "fixation",
        "trial_type": "html-keyboard-response",
        "trial_index": 88,
        "time_elapsed": 75753,
        "internal_node_id": "0.0-10.0-2.0-0.3",
        "participant_id": "zna8j6rta7",
        "trial_duration": 768
    },
    {
        "rt": 368,
        "stimulus": "stimuli/White_str0_diff17.0.png",
        "response": "arrowleft",
        "screen": "Trial",
        "block": "White",
        "correct_response": "arrowleft",
        "trial_type": "image-keyboard-response",
        "trial_index": 89,
        "time_elapsed": 76123,
        "internal_node_id": "0.0-10.0-2.0-1.3",
        "participant_id": "zna8j6rta7",
        "prestimulus_duration": 777,
        "correct": true,
        "type": "White",
        "illusion_strength": 0,
        "illusion_difference": 17,
        "block_number": 8,
        "trial_number": 4
    },
    {
        "rt": 1346,
        "stimulus": "<p>Your score for this illusion is <p style=\"color: black; font-size: 48px; font-weight: bold;\">82</p><hr><p>Can you do better in the next block?</p>",
        "response": 0,
        "screen": "block_results",
        "trial_type": "html-button-response",
        "trial_index": 90,
        "time_elapsed": 77471,
        "internal_node_id": "0.0-10.0-3.0",
        "participant_id": "zna8j6rta7"
    },
    {
        "rt": 2809,
        "stimulus": "<p><strong>Your final score is</strong> <p style=\"color: black; font-size: 48px; font-weight: bold;\">&#127881; 82 &#127881;</p><hr><p>Thank you for participating!</p>",
        "response": 0,
        "screen": "final_results",
        "trial_type": "html-button-response",
        "trial_index": 91,
        "time_elapsed": 80281,
        "internal_node_id": "0.0-11.0",
        "participant_id": "zna8j6rta7"
    },
    {
        "success": true,
        "trial_type": "fullscreen",
        "trial_index": 92,
        "time_elapsed": 81297,
        "internal_node_id": "0.0-12.0",
        "participant_id": "zna8j6rta7"
    }
]